t,raw_acceleration_x,raw_acceleration_y,raw_acceleration_z,rotation_speed_x,rotation_speed_y,rotation_speed_z,magnetic_field_x,magnetic_field_y,magnetic_field_z
1467.451526,0.04,0.25,-9.77,0.0,0.0,0.0,-21.68,29.37,33.25
1467.471576,0.05,0.35,-9.73,0.0,0.0,0.0,-22.0,28.56,33.68
1467.495539,0.1,0.38,-9.78,0.0,0.0,0.0,-22.0,29.0,33.68
1467.515596,0.06,0.24,-9.78,0.0,0.0,0.0,-22.0,29.0,33.68
1467.539562,0.0,0.19,-9.74,0.0,0.0,0.0,-22.0,29.0,33.68
1467.563638,-0.05,0.23,-9.73,0.0,0.0,0.0,-22.37,29.37,32.06
1467.583482,0.04,0.34,-9.76,0.0,0.0,0.0,-22.37,29.37,32.06
1467.607617,0.13,0.35,-9.8,0.0,0.0,0.0,-21.68,29.0,34.5
1467.631623,0.09,0.26,-9.8,0.0,0.0,0.0,-21.68,29.0,34.5
1467.6517,0.04,0.21,-9.77,0.0,0.0,0.0,-21.68,29.0,34.5
1467.675629,0.02,0.25,-9.77,0.0,0.0,0.0,-21.68,29.0,34.06
1467.695653,0.05,0.33,-9.76,0.0,0.0,0.0,-21.68,29.0,34.06
1467.719636,0.05,0.32,-9.8,0.0,0.0,0.0,-21.68,29.75,33.25
1467.743728,0.03,0.3,-9.77,0.0,0.0,0.0,-21.68,29.75,33.25
1467.763786,0.05,0.21,-9.77,0.0,0.0,0.0,-21.68,29.75,33.25
1467.787654,0.08,0.21,-9.8,0.0,0.01,0.0,-22.0,29.0,33.25
1467.811717,0.85,0.4,-9.74,0.0,0.0,0.14,-22.0,29.0,33.25
1467.831777,-0.76,0.74,-9.85,0.0,0.0,0.18,-22.37,29.0,32.5
1467.855767,-0.37,1.03,-9.75,0.0,0.0,-0.1,-22.37,29.0,32.5
1467.879677,0.31,1.43,-9.59,-0.07,-0.02,0.02,-22.37,29.0,32.5
1467.899782,0.69,1.36,-9.64,-0.17,0.0,0.24,-21.25,29.0,33.68
1467.923749,1.64,1.03,-9.72,0.0,0.02,0.44,-21.25,29.0,33.68
1467.943605,1.05,2.22,-9.46,0.01,-0.04,0.27,-21.68,29.75,32.06
1467.967633,0.99,5.81,-9.86,0.01,-0.01,-0.03,-21.68,29.75,32.06
1467.991632,2.67,7.83,-9.59,0.02,-0.01,-0.74,-21.68,29.75,32.06
1468.011622,4.44,3.21,-9.84,0.03,0.03,-2.39,-21.68,28.56,32.87
1468.035668,4.57,2.37,-9.69,-0.04,-0.01,-2.49,-21.68,28.56,32.87
1468.059637,4.99,-0.07,-9.69,0.04,-0.02,-2.45,-23.87,27.87,33.25
1468.079546,4.29,-0.76,-9.66,0.16,0.0,-2.11,-23.87,27.87,33.25
1468.103681,4.38,-3.18,-9.69,0.1,0.0,-1.63,-28.68,24.18,32.5
1468.123734,2.62,-3.22,-10.23,0.01,-0.02,-1.37,-28.68,24.18,32.5
1468.147768,3.08,-3.11,-9.19,0.07,-0.05,-1.12,-28.68,24.18,32.5
1468.171774,2.5,-2.19,-10.06,0.01,0.0,-0.93,-32.06,21.56,31.25
1468.191741,2.27,-2.02,-9.8,0.03,-0.03,-1.2,-32.06,21.56,31.25
1468.215769,1.12,-4.8,-10.19,-0.05,0.04,-1.18,-34.68,19.37,29.0
1468.239761,1.03,-5.99,-10.11,0.0,0.01,-1.07,-34.68,19.37,29.0
1468.259719,1.04,-5.73,-9.05,-0.03,0.0,-0.74,-34.68,19.37,29.0
1468.283763,1.09,-5.15,-10.02,-0.05,0.04,-0.33,-40.25,15.75,23.87
1468.303669,0.55,-3.02,-9.92,0.01,0.04,-0.21,-40.25,15.75,23.87
1468.327631,0.54,-2.79,-10.13,-0.04,0.0,0.08,-44.37,11.5,13.18
1468.351779,0.42,-2.19,-9.86,-0.03,-0.03,0.28,-44.37,11.5,13.18
1468.371665,-0.97,-2.74,-9.89,-0.09,-0.02,0.23,-44.37,11.5,13.18
1468.39577,-1.99,-5.0,-9.84,-0.02,-0.01,0.22,-43.0,11.06,-2.56
1468.419656,-2.81,-5.51,-10.02,-0.02,0.0,0.9,-43.0,11.06,-2.56
1468.439687,-3.57,-4.87,-10.03,-0.08,0.0,1.52,-30.25,24.37,-16.25
1468.463676,-3.32,-4.94,-9.52,-0.09,0.0,1.96,-30.25,24.37,-16.25
1468.495739,-4.75,-4.32,-9.73,-0.13,0.05,2.31,-30.25,24.37,-16.25
1468.519855,-5.95,-2.7,-9.11,0.05,0.0,2.52,-9.68,38.68,-20.5
1468.543826,-4.26,-3.4,-10.31,0.14,-0.07,2.65,-9.68,38.68,-20.5
1468.563876,-4.2,3.44,-9.92,-0.01,0.07,2.11,-16.18,35.87,-35.18
1468.587862,-3.43,3.57,-9.56,0.0,0.0,1.7,-16.18,35.87,-35.18
1468.60782,-2.33,5.51,-9.31,0.04,0.0,1.53,-43.56,25.75,-10.25
1468.631859,-2.75,5.35,-8.77,0.01,0.03,1.38,-43.56,25.75,-10.25
1468.655855,-1.82,5.83,-9.94,-0.03,0.03,0.79,-43.56,25.75,-10.25
1468.675807,0.76,6.25,-10.07,-0.01,0.03,0.58,-39.25,29.06,14.18
1468.699864,0.54,5.67,-9.85,-0.04,0.01,1.1,-39.25,29.06,14.18
1468.723827,-0.13,5.75,-9.51,-0.01,0.01,1.15,-31.06,30.56,24.5
1468.743819,1.11,5.75,-9.77,-0.02,0.0,0.96,-31.06,30.56,24.5
1468.767881,-0.25,5.98,-9.61,0.04,0.01,0.41,-31.06,30.56,24.5
1468.787868,0.97,5.13,-9.19,0.05,-0.01,-0.23,-24.68,32.06,30.68
1468.811818,2.27,3.43,-10.01,-0.04,-0.01,-0.61,-24.68,32.06,30.68
1468.835861,1.08,3.94,-10.63,-0.08,0.04,-0.92,-22.0,31.25,30.18
1468.855868,4.03,2.18,-11.29,-0.1,0.07,-1.2,-22.0,31.25,30.18
1468.879863,2.35,1.88,-10.23,-0.1,0.04,-0.78,-22.0,31.25,30.18
1468.903873,2.27,1.59,-9.51,-0.01,0.0,-0.82,-20.0,30.0,32.56
1468.923824,3.23,1.32,-10.79,-0.09,-0.02,-0.87,-20.0,30.0,32.56
1468.947867,4.33,0.43,-9.99,0.01,0.0,-0.94,-19.56,28.25,33.0
1468.967707,3.16,0.22,-10.51,0.13,-0.03,-0.82,-19.56,28.25,33.0
1468.991737,3.77,-1.64,-9.68,0.12,-0.04,-0.79,-19.56,28.25,33.0
1469.015879,2.0,-5.61,-9.86,0.02,0.0,0.07,-20.75,27.56,33.25
1469.035861,1.32,-3.6,-10.09,0.0,0.0,0.16,-20.75,27.56,33.25
1469.059821,1.59,-1.7,-9.85,0.01,0.0,0.23,-20.0,28.0,34.5
1469.08386,0.28,0.04,-9.85,-0.01,0.0,0.48,-20.0,28.0,34.5
1469.103864,-0.09,0.15,-9.84,0.0,0.0,0.32,-20.37,27.87,33.68
1469.127833,0.09,0.23,-9.77,0.0,-0.01,0.01,-20.37,27.87,33.68
1469.17573,0.19,0.17,-7.69,0.01,-0.02,0.0,-20.37,27.87,33.68
1469.195764,2.06,3.32,-12.66,0.89,-0.75,0.0,-19.56,29.37,33.56
1469.215657,-0.62,-0.77,-1.9,0.85,-0.57,0.07,-19.56,29.37,33.56
1469.239742,-1.22,-0.78,-8.47,-1.38,0.71,0.15,-19.56,28.56,34.0
1469.263769,0.12,0.25,-9.72,-0.04,-0.02,0.07,-19.56,28.56,34.0
1469.283756,0.1,0.27,-9.77,0.0,0.0,0.0,-18.87,29.37,34.0
1469.307817,0.08,0.22,-9.69,0.0,0.0,0.0,-18.87,29.37,34.0
1469.327826,0.02,0.24,-9.73,0.0,0.0,0.0,-18.87,29.37,34.0
1469.35177,0.03,0.24,-9.69,0.0,0.0,0.0,-19.56,29.0,33.56
1469.37565,0.06,0.26,-9.73,0.0,0.0,0.0,-18.87,29.0,33.18
1469.395667,0.01,0.23,-9.8,0.0,0.0,0.0,-19.56,28.56,33.18
1469.419666,0.03,0.22,-9.72,0.0,0.0,0.0,-19.56,28.56,33.18
1469.443624,0.05,0.25,-9.83,0.0,0.0,0.0,-19.56,28.56,33.18
1469.463745,0.08,0.26,-9.75,0.0,0.0,0.0,-19.25,29.37,32.75
1469.487846,0.06,0.28,-9.82,0.0,0.0,0.0,-19.25,29.37,32.75
1469.507759,0.05,0.26,-9.74,0.0,0.0,0.0,-19.56,28.25,34.0
1469.531769,0.01,0.23,-9.78,0.0,0.0,0.0,-19.56,28.25,34.0
1469.555657,0.02,0.23,-9.73,0.0,0.0,0.0,-19.56,29.37,32.75
1469.57574,0.07,0.25,-9.8,0.0,0.0,0.0,-19.56,29.37,32.75
1469.599768,0.08,0.26,-9.8,0.0,0.0,0.0,-19.56,29.37,32.75
1469.623826,0.05,0.24,-9.78,0.0,0.0,0.0,-19.56,28.56,32.0
1469.643632,0.04,0.27,-9.77,0.0,0.0,0.0,-19.56,28.56,32.0
1469.667774,0.04,0.24,-9.77,0.0,0.0,0.0,-18.87,28.25,34.0
1469.687861,0.08,0.26,-9.77,0.0,0.0,0.0,-18.87,28.25,34.0
1469.711819,0.06,0.24,-9.78,0.0,0.0,0.0,-18.87,28.25,34.0
1469.735872,0.0,0.23,-9.75,0.0,0.0,0.0,-19.25,28.56,33.56
1469.755867,0.03,0.24,-9.77,0.0,0.0,0.0,-19.25,28.56,33.56
1469.779749,0.08,0.3,-9.78,0.0,0.0,0.0,-18.87,29.0,34.0
1469.803876,0.07,0.28,-9.84,0.0,0.0,0.0,-18.87,29.0,34.0
1469.82383,0.08,0.24,-9.8,0.0,0.0,0.0,-18.87,29.0,34.0
1469.847783,0.01,0.2,-9.72,0.0,0.0,0.0,-19.25,29.0,33.18
1469.867865,0.0,0.19,-9.78,0.0,0.0,0.0,-19.25,29.0,33.18
1469.891825,0.09,0.25,-9.77,0.0,0.0,0.0,-19.56,29.0,33.56
1469.915818,0.02,0.25,-9.76,0.0,0.0,0.0,-19.25,29.0,33.56
1469.935878,0.09,0.2,-9.8,0.0,0.0,0.0,-18.87,29.75,34.0
1469.959832,0.09,0.16,-9.78,0.0,0.0,0.0,-18.87,29.75,34.0
1469.983754,0.02,0.17,-9.76,0.0,0.0,0.0,-18.87,29.75,34.0
1470.003828,0.01,0.25,-9.76,0.0,0.0,0.0,-19.25,29.0,33.56
1470.027771,-0.03,0.33,-9.77,0.0,0.0,0.0,-19.25,29.0,33.56
1470.051774,0.04,0.39,-9.83,0.0,0.0,0.0,-18.87,29.37,32.75
1470.071864,0.1,0.24,-9.82,0.0,0.0,0.0,-18.87,29.37,32.75
1470.095778,0.08,0.19,-9.83,0.0,0.0,0.0,-18.87,29.37,32.75
1470.115831,0.0,0.12,-9.74,0.0,0.0,0.0,-19.56,28.56,32.75
1470.139879,0.0,0.24,-9.75,0.0,0.0,0.0,-19.56,28.56,32.75
1470.163821,0.02,0.32,-9.75,0.0,0.0,0.0,-18.87,29.37,32.75
1470.183854,0.09,0.36,-9.82,0.0,0.0,0.0,-18.87,29.37,32.75
1470.207829,0.11,0.3,-9.78,0.0,0.0,0.0,-18.87,29.37,32.75
1470.231827,0.03,0.18,-9.76,0.0,0.0,0.0,-20.0,29.0,32.75
1470.251837,0.02,0.14,-9.74,0.0,0.0,0.0,-20.0,29.0,32.75
1470.275829,0.01,0.24,-9.77,0.0,0.0,0.0,-18.87,29.75,32.0
1470.295835,0.07,0.27,-9.76,0.0,0.0,0.0,-18.87,29.75,32.0
1470.319839,0.07,0.26,-9.8,0.0,0.0,0.0,-18.87,29.75,32.0
1470.351764,0.02,0.23,-9.76,0.0,0.0,0.0,-18.87,28.25,32.37
1470.375835,0.01,0.2,-9.73,0.0,0.0,0.0,-18.87,28.25,32.37
1470.399827,0.02,0.25,-9.8,0.0,0.0,0.0,-18.87,29.0,33.18
1470.419785,0.07,0.28,-9.82,0.0,0.0,0.0,-18.87,29.0,33.18
1470.443833,0.02,0.24,-9.74,0.0,0.0,0.0,-19.25,29.0,32.75
1470.46774,0.05,0.27,-9.82,0.0,0.0,0.0,-19.25,29.0,32.75
1470.487734,0.08,0.28,-9.8,0.0,0.0,0.0,-19.25,29.0,32.75
1470.511737,0.07,0.27,-9.81,0.0,0.0,0.0,-19.56,28.25,32.37
1470.531747,0.01,0.2,-9.76,0.0,0.0,0.0,-19.56,28.25,32.37
1470.555732,0.03,0.22,-9.77,0.0,0.0,0.0,-18.5,29.0,33.56
1470.579747,0.04,0.25,-9.77,0.0,0.0,0.0,-18.5,29.0,33.56
1470.59975,0.07,0.3,-9.8,0.0,0.0,0.0,-18.5,29.0,33.56
1470.623731,0.05,0.27,-9.8,0.0,0.0,0.0,-18.87,28.25,32.37
1470.647825,0.02,0.26,-9.76,0.0,0.0,0.0,-18.87,28.25,32.37
1470.667814,0.01,0.21,-9.77,0.0,0.0,0.0,-19.56,29.0,32.0
1470.691823,0.06,0.22,-9.77,0.0,0.0,0.0,-19.56,29.0,32.0
1470.711825,0.08,0.23,-9.8,0.0,0.0,0.0,-19.56,29.0,32.0
1470.73582,0.06,0.27,-9.81,0.0,0.0,0.0,-19.25,28.56,33.18
1470.759822,0.04,0.27,-9.77,0.0,0.0,0.0,-19.25,28.56,33.18
1470.779819,0.01,0.25,-9.77,0.0,0.0,0.0,-18.87,29.0,33.56
1470.803813,0.02,0.22,-9.77,0.0,0.0,0.0,-18.87,29.0,33.56
1470.827828,0.07,0.21,-9.77,0.0,0.0,0.0,-18.87,29.0,33.56
1470.847827,0.08,0.21,-9.78,0.0,0.0,0.0,-20.0,29.0,33.18
1470.871983,0.06,0.24,-9.8,0.0,0.0,0.0,-20.0,29.0,33.18
1470.895601,0.08,0.24,-9.77,0.0,0.0,0.0,-18.5,29.37,32.75
1470.915691,0.07,0.21,-9.82,0.0,0.0,0.0,-18.5,29.37,32.75
1470.939772,0.05,0.2,-9.77,0.0,0.0,0.0,-20.37,29.0,33.18
1470.959743,0.02,0.24,-9.76,0.0,0.0,0.0,-20.37,29.0,33.18
1470.983668,0.03,0.28,-9.77,0.0,0.0,0.0,-20.37,29.0,33.18
1471.007771,0.02,0.28,-9.74,0.0,0.0,0.0,-18.87,28.25,34.0
1471.027732,0.07,0.24,-9.78,0.0,0.0,0.0,-18.87,28.25,34.0
1471.051788,0.06,0.21,-9.77,0.0,0.0,0.0,-18.5,29.0,32.75
1471.075801,0.04,0.22,-9.82,0.0,0.0,0.0,-18.5,29.0,32.75
1471.095781,0.02,0.22,-9.76,0.0,0.0,0.0,-18.5,29.0,32.75
1471.119877,0.05,0.27,-9.77,0.0,0.0,0.0,-19.56,28.25,33.18
1471.139822,0.02,0.27,-9.82,0.0,0.0,0.0,-19.56,28.25,33.18
1471.163834,0.05,0.25,-9.77,0.0,0.0,0.0,-19.25,28.56,33.56
1471.18787,0.06,0.22,-9.77,0.0,0.0,0.0,-19.25,28.56,33.56
1471.207826,0.04,0.22,-9.76,0.0,0.0,0.0,-19.25,28.56,33.56
1471.231883,0.04,0.25,-9.78,0.0,0.0,0.0,-18.87,29.37,33.56
1471.255778,0.07,0.28,-9.77,0.0,0.0,0.0,-18.87,29.37,33.56
1471.275734,0.04,0.26,-9.77,0.0,0.0,0.0,-19.25,29.0,32.75
1471.299858,0.04,0.25,-9.77,0.0,0.0,0.0,-19.25,29.0,32.75
1471.319769,0.02,0.24,-9.77,0.0,0.0,0.0,-19.25,29.0,32.75
1471.343735,0.05,0.22,-9.74,0.0,0.0,0.0,-19.25,28.56,33.18
1471.367679,0.06,0.24,-9.77,0.0,0.0,0.0,-19.25,28.56,33.18
1471.387679,0.04,0.24,-9.77,0.0,0.0,0.0,-18.87,29.37,33.18
1471.41162,0.03,0.25,-9.77,0.0,0.0,0.0,-18.87,29.37,33.18
1471.435627,0.05,0.22,-9.77,0.0,0.0,0.0,-18.5,29.37,32.0
1471.455648,0.03,0.23,-9.8,0.0,0.0,0.0,-18.5,29.37,32.0
1471.479627,0.07,0.23,-9.77,0.0,0.0,0.0,-18.5,29.37,32.0
1471.499709,0.04,0.23,-9.77,0.0,0.0,0.0,-18.87,29.0,32.75
1471.523638,0.03,0.25,-9.76,0.0,0.0,0.0,-18.87,29.0,32.75
1471.547745,0.04,0.27,-9.77,0.0,0.0,0.0,-19.56,29.0,33.18
1471.567659,0.04,0.26,-9.81,0.0,0.0,0.0,-19.56,29.0,33.18
1471.591723,0.05,0.24,-9.76,0.0,0.0,0.0,-19.56,29.0,33.18
1471.615744,0.04,0.24,-9.78,0.0,0.0,0.0,-20.0,28.56,34.0
1471.635763,0.04,0.23,-9.77,0.0,0.0,0.0,-20.0,28.56,34.0
1471.659706,0.02,0.24,-9.8,0.0,0.0,0.0,-19.56,29.37,32.37
1471.67978,0.05,0.24,-9.78,0.0,0.0,0.0,-19.56,29.37,32.37
1471.703766,0.03,0.26,-9.78,0.0,0.0,0.0,-19.56,29.37,32.37
1471.727714,0.03,0.24,-9.76,0.0,0.0,0.0,-19.56,28.25,32.75
1471.747752,0.02,0.27,-9.78,0.0,0.0,0.0,-19.56,28.25,32.75
1471.771631,0.05,0.23,-9.77,0.0,0.0,0.0,-19.56,28.56,32.37
1471.795664,0.06,0.25,-9.82,0.0,0.0,0.0,-19.56,28.56,32.37
1471.815725,0.03,0.24,-9.77,0.0,0.0,0.0,-19.56,28.56,32.37
1471.839716,0.03,0.24,-9.76,0.0,0.0,0.0,-19.25,28.56,32.75
1471.859616,0.03,0.24,-9.77,0.0,0.0,0.0,-19.25,28.56,32.75
1471.883643,0.03,0.26,-9.77,0.0,0.0,0.0,-18.87,29.37,32.0
1471.907715,0.05,0.24,-9.78,0.0,0.0,0.0,-18.87,29.37,32.0
1471.927711,0.04,0.23,-9.77,0.0,0.0,0.0,-18.87,29.37,32.0
1471.951782,0.02,0.21,-9.77,0.0,0.0,0.0,-19.25,29.0,33.18
1471.975744,0.03,0.24,-9.77,0.0,0.0,0.0,-19.25,29.37,31.18
1471.995663,0.06,0.23,-9.75,0.0,0.0,0.0,-18.5,28.25,32.37
1472.019759,0.03,0.25,-9.77,0.0,0.0,0.0,-18.5,28.25,32.37
1472.039779,0.04,0.24,-9.73,0.0,0.0,0.0,-19.56,29.37,32.75
1472.063814,0.06,0.25,-9.82,0.0,0.0,0.0,-19.56,29.37,32.75
1472.087947,0.06,0.25,-9.76,0.0,0.0,0.0,-19.56,29.37,32.75
1472.107796,0.04,0.24,-9.77,0.0,0.0,0.0,-20.0,28.56,32.75
1472.131762,0.05,0.25,-9.75,0.0,0.0,0.0,-20.0,28.56,32.75
1472.155896,0.05,0.23,-9.78,0.0,0.0,0.0,-18.87,29.0,33.56
1472.175877,0.05,0.23,-9.77,0.0,0.0,0.0,-18.87,29.0,33.56
1472.199876,0.05,0.22,-9.77,0.0,0.0,0.0,-18.87,29.0,33.56
1472.219902,0.06,0.25,-9.76,0.0,0.0,0.0,-19.25,28.56,33.56
1472.243745,0.03,0.26,-9.81,0.0,0.0,0.0,-19.25,28.56,33.56
1472.267784,0.03,0.23,-9.76,0.0,0.0,0.0,-20.0,29.37,33.18
1472.299791,0.04,0.24,-9.8,0.0,0.0,0.0,-20.0,29.37,33.18
1472.323799,0.06,0.25,-9.77,0.0,0.0,0.0,-20.0,29.37,33.18
1472.343766,0.03,0.26,-9.77,0.0,0.0,0.0,-20.0,28.56,32.37
1472.367763,0.04,0.24,-9.77,0.0,0.0,0.0,-20.0,28.56,32.37
1472.391778,0.05,0.26,-9.78,0.0,0.0,0.0,-19.56,29.0,33.56
1472.411833,0.07,0.24,-9.78,0.0,0.0,0.0,-19.56,29.0,33.56
1472.435645,0.05,0.24,-9.76,0.0,0.0,0.0,-20.0,29.37,32.75
1472.459753,0.06,0.24,-9.78,0.0,0.0,0.0,-20.0,29.37,32.75
1472.479657,0.05,0.24,-9.77,0.0,0.0,0.0,-20.0,29.37,32.75
1472.50376,0.05,0.23,-9.77,0.0,0.0,0.0,-19.25,28.56,32.75
1472.523745,0.05,0.24,-9.77,0.0,0.0,0.0,-19.25,28.56,32.75
1472.547761,0.03,0.24,-9.77,0.0,0.0,0.0,-19.56,29.0,32.37
1472.571765,0.03,0.23,-9.78,0.0,0.0,0.0,-19.56,29.0,32.37
1472.591733,0.04,0.27,-9.77,0.0,0.0,0.0,-19.56,29.0,32.37
1472.615763,0.05,0.25,-9.77,0.0,0.0,0.0,-19.25,28.56,32.37
1472.639813,0.04,0.24,-9.78,0.0,0.0,0.0,-19.25,28.56,32.37
1472.659765,0.05,0.24,-9.77,0.0,0.0,0.0,-19.25,29.37,33.18
1472.68384,0.05,0.24,-9.81,0.0,0.0,0.0,-19.25,29.37,33.18
1472.703793,0.04,0.24,-9.77,0.0,0.0,0.0,-19.25,29.37,33.18
1472.727805,0.02,0.25,-9.77,0.0,0.0,0.0,-20.37,29.0,33.18
1472.751838,0.05,0.26,-9.77,0.0,0.0,0.0,-20.37,29.0,33.18
1472.77185,0.03,0.25,-9.77,0.0,0.0,0.0,-18.87,28.56,32.75
1472.795842,0.03,0.22,-9.77,0.0,0.0,0.0,-18.87,28.56,32.75
1472.819843,0.04,0.25,-9.77,0.0,0.0,0.0,-18.87,28.56,32.75
1472.839814,0.05,0.25,-9.81,0.0,0.0,0.0,-19.56,28.25,34.75
1472.863854,0.04,0.24,-9.76,0.0,0.0,0.0,-19.56,28.25,34.75
1472.88383,0.02,0.26,-9.8,0.0,0.0,0.0,-20.37,29.0,32.0
1472.907804,0.06,0.24,-9.78,0.0,0.0,0.0,-20.37,29.0,32.0
1472.931852,0.06,0.24,-9.8,0.0,0.0,0.0,-20.37,29.0,32.0
1472.951905,0.04,0.25,-9.8,0.0,0.0,0.0,-20.37,28.56,33.56
1472.975947,0.05,0.25,-9.77,0.0,0.0,0.0,-18.87,29.0,32.0
1472.999923,0.05,0.25,-9.76,0.0,0.0,0.0,-19.56,28.56,33.56
1473.019923,0.04,0.25,-9.78,0.0,0.0,0.0,-19.56,28.56,33.56
1473.043869,0.03,0.25,-9.76,0.0,0.0,0.0,-19.25,29.37,32.0
1473.063858,0.03,0.24,-9.77,0.0,0.0,0.0,-19.25,29.37,32.0
1473.087921,0.03,0.22,-9.8,0.0,0.0,0.0,-19.25,29.37,32.0
1473.111936,0.05,0.24,-9.77,0.0,0.0,0.0,-19.25,28.56,32.75
1473.131926,0.07,0.24,-9.77,0.0,0.0,0.0,-19.25,28.56,32.75
1473.155883,0.05,0.23,-9.81,0.0,0.0,0.0,-19.56,29.0,33.18
1473.179914,0.02,0.25,-9.81,0.0,0.0,0.0,-19.56,29.0,33.18
1473.199895,0.04,0.27,-9.77,0.0,0.0,0.0,-19.56,29.0,33.18
1473.223886,0.04,0.25,-9.77,0.0,0.0,0.0,-19.25,29.0,32.37
1473.243865,0.06,0.25,-9.81,0.0,0.0,0.0,-19.25,29.0,32.37
1473.267919,0.07,0.24,-9.77,0.0,0.0,0.0,-18.87,29.0,33.56
1473.291864,0.03,0.25,-9.8,0.0,0.0,0.0,-18.87,29.0,33.56
1473.311945,0.02,0.24,-9.77,0.0,0.0,0.0,-18.87,29.0,33.56
1473.335918,0.04,0.24,-9.81,0.0,0.0,0.0,-19.56,28.56,32.37
1473.359765,0.05,0.23,-9.77,0.0,0.0,0.0,-19.56,28.56,32.37
1473.379874,0.03,0.23,-9.75,0.0,0.0,0.0,-19.25,28.56,34.0
1473.403864,0.03,0.22,-9.8,0.0,0.0,0.0,-19.25,28.56,34.0
1473.427886,0.04,0.24,-9.77,0.0,0.0,0.0,-19.25,28.56,34.0
1473.448578,0.05,0.25,-9.76,0.0,0.0,0.0,-19.56,29.0,32.75
1473.471813,0.07,0.24,-9.77,0.0,0.0,0.0,-19.56,29.0,32.75
1473.491738,0.04,0.24,-9.77,0.0,0.0,0.0,-19.56,29.0,31.56
1473.515792,0.03,0.27,-9.78,0.0,0.0,0.0,-19.56,29.0,32.37
1473.53978,0.04,0.25,-9.74,0.0,0.0,0.0,-19.25,29.37,32.0
1473.559807,0.06,0.26,-9.78,0.0,0.0,0.0,-19.25,29.37,32.0
1473.583631,0.05,0.24,-9.76,0.0,0.0,0.0,-19.25,29.37,32.0
1473.607784,0.03,0.24,-9.75,0.0,0.0,0.0,-18.87,28.56,33.18
1473.627888,0.04,0.23,-9.77,0.0,0.0,0.0,-18.87,28.56,33.18
1473.65189,0.05,0.24,-9.77,0.0,0.0,0.0,-20.0,28.56,33.18
1473.671887,0.06,0.24,-9.77,0.0,0.0,0.0,-20.0,28.56,33.18
1473.695885,0.03,0.24,-9.74,0.0,0.0,0.0,-20.0,28.56,33.18
1473.719867,0.04,0.24,-9.81,0.0,0.0,0.0,-19.25,28.56,33.18
1473.739796,0.06,0.27,-9.75,0.0,0.0,0.0,-19.25,28.56,33.18
1473.763785,0.04,0.24,-9.8,0.0,0.0,0.0,-20.0,28.56,32.0
1473.787788,0.05,0.21,-9.77,0.0,0.0,0.0,-20.0,28.56,32.0
1473.807799,0.04,0.25,-9.82,0.0,0.0,0.0,-20.0,28.56,32.0
1473.831868,0.04,0.24,-9.72,0.0,0.0,0.0,-19.25,29.0,33.56
1473.851786,0.03,0.25,-9.82,0.0,0.0,0.0,-19.25,29.0,33.56
1473.875876,0.03,0.25,-9.72,0.0,0.0,0.0,-18.87,29.0,32.75
1473.89988,0.04,0.24,-9.81,0.0,0.0,0.0,-18.87,29.0,32.75
1473.919793,0.03,0.25,-9.74,0.0,0.0,0.0,-18.87,29.0,32.75
1473.94379,0.04,0.24,-9.78,0.0,0.0,0.0,-18.87,29.0,32.37
1473.967727,0.04,0.25,-9.77,0.0,0.0,0.0,-18.87,29.0,32.37
1473.987748,0.04,0.24,-9.77,0.0,0.0,0.0,-19.25,29.0,32.75
1474.011803,0.04,0.24,-9.78,0.0,0.0,0.0,-19.25,29.0,32.75
1474.031783,0.03,0.24,-9.76,0.0,0.0,0.0,-19.25,29.0,32.75
1474.055777,0.02,0.25,-9.77,0.0,0.0,0.0,-19.25,29.0,32.75
1474.079764,0.05,0.25,-9.82,0.0,0.0,0.0,-19.25,29.0,32.75
1474.099802,0.06,0.24,-9.77,0.0,0.0,0.0,-19.25,28.56,33.56
1474.12379,0.05,0.25,-9.81,0.0,0.0,0.0,-19.25,28.56,33.56
1474.147801,0.03,0.23,-9.76,0.0,0.0,0.0,-18.87,29.0,32.75
1474.167804,0.02,0.23,-9.8,0.0,0.0,0.0,-18.87,29.0,32.75
1474.191795,0.03,0.24,-9.77,0.0,0.0,0.0,-18.87,29.0,32.75
1474.211772,0.05,0.24,-9.77,0.0,0.0,0.0,-19.25,28.56,33.56
1474.235835,0.05,0.26,-9.77,0.0,0.0,0.0,-19.25,28.56,33.56
1474.259872,0.04,0.23,-9.77,0.0,0.0,0.0,-18.5,29.0,32.75
1474.279823,0.03,0.25,-9.77,0.0,0.0,0.0,-18.5,29.0,32.75
1474.303779,0.03,0.24,-9.77,0.0,0.0,0.0,-18.5,29.0,32.75
1474.327912,0.03,0.24,-9.74,0.0,0.0,0.0,-19.25,28.25,33.56
1474.347875,0.04,0.25,-9.77,0.0,0.0,0.0,-19.25,28.25,33.56
1474.371867,0.06,0.26,-9.76,0.0,0.0,0.0,-18.87,28.56,32.37
1474.391871,0.04,0.24,-9.77,0.0,0.0,0.0,-18.87,28.56,32.37
1474.415935,0.03,0.23,-9.75,0.0,0.0,0.0,-18.87,28.56,32.37
1474.43988,0.06,0.24,-9.77,0.0,0.0,0.0,-20.0,28.56,32.75
1474.459695,0.02,0.23,-9.77,0.0,0.0,0.0,-20.0,28.56,32.75
1474.483902,0.05,0.24,-9.77,0.0,0.0,0.0,-19.25,29.37,32.37
1474.507783,0.05,0.22,-9.8,0.0,0.0,0.0,-19.25,29.37,32.37
1474.527654,0.04,0.25,-9.75,0.0,0.0,0.0,-19.25,29.37,32.37
1474.551712,0.05,0.24,-9.81,0.0,0.0,0.0,-19.25,29.37,34.0
1474.575727,0.04,0.25,-9.76,0.0,0.0,0.0,-19.25,29.37,34.0
1474.595698,0.05,0.25,-9.75,0.0,0.0,0.0,-19.25,28.56,33.56
1474.619693,0.03,0.24,-9.77,0.0,0.0,0.0,-19.25,28.56,33.56
1474.651689,0.03,0.24,-9.78,0.0,0.0,0.0,-18.87,29.0,31.18
1474.675663,0.04,0.25,-9.77,0.0,0.0,0.0,-18.87,29.0,31.18
1474.695698,0.06,0.24,-9.77,0.0,0.0,0.0,-18.87,29.0,31.18
1474.719696,0.04,0.25,-9.75,0.0,0.0,0.0,-19.25,29.37,33.18
1474.743698,0.05,0.23,-9.78,0.0,0.0,0.0,-19.25,29.37,33.18
1474.763692,0.05,0.24,-9.77,0.0,0.0,0.0,-18.87,29.75,32.75
1474.787692,0.07,0.25,-9.83,0.0,0.0,0.0,-18.87,29.75,32.75
1474.811684,0.03,0.24,-9.78,0.0,0.0,0.0,-18.87,29.75,32.75
1474.831693,0.03,0.22,-9.76,0.0,0.0,0.0,-18.87,28.56,32.75
1474.855676,0.03,0.24,-9.77,0.0,0.0,0.0,-18.87,28.56,32.75
1474.875649,0.04,0.25,-9.77,0.0,0.0,0.0,-19.56,28.56,32.75
1474.899685,0.04,0.24,-9.82,0.0,0.0,0.0,-19.56,28.56,32.75
1474.923655,0.06,0.25,-9.77,0.0,0.0,0.0,-19.56,28.56,32.75
1474.943688,0.03,0.24,-9.8,0.0,0.0,0.0,-18.87,29.0,33.18
1474.967569,0.05,0.24,-9.77,0.0,0.0,0.0,-18.87,29.0,33.18
1474.991238,0.05,0.26,-9.74,0.0,0.0,0.0,-18.87,29.0,32.37
1475.011439,0.03,0.23,-9.77,0.0,0.0,0.0,-18.87,29.0,32.37
1475.035283,0.04,0.26,-9.77,0.0,0.0,0.0,-20.0,29.0,32.37
1475.055559,0.04,0.23,-9.8,0.0,0.0,0.0,-20.0,29.0,32.37
1475.079596,0.05,0.24,-9.77,0.0,0.0,0.0,-20.0,29.0,32.37
1475.103594,0.04,0.22,-9.76,0.0,0.0,0.0,-18.87,29.37,33.56
1475.123567,0.04,0.24,-9.77,0.0,0.0,0.0,-18.87,29.37,33.56
1475.147714,0.05,0.24,-9.74,0.0,0.0,0.0,-19.25,29.0,32.37
1475.171679,0.03,0.26,-9.77,0.0,0.0,0.0,-19.25,29.0,32.37
1475.191645,0.03,0.25,-9.76,0.0,0.0,0.0,-19.25,29.0,32.37
1475.215642,0.05,0.26,-9.78,0.0,0.0,0.0,-18.5,29.0,32.37
1475.239642,0.05,0.22,-9.78,0.0,0.0,0.0,-18.5,29.0,32.37
1475.25966,0.04,0.23,-9.77,0.0,0.0,0.0,-19.56,28.56,33.18
1475.283691,0.05,0.26,-9.77,0.0,0.0,0.0,-19.56,28.56,33.18
1475.303694,0.03,0.25,-9.78,0.0,0.0,0.0,-19.56,28.56,33.18
1475.327652,0.03,0.24,-9.77,0.0,0.0,0.0,-18.87,28.56,34.37
1475.351693,0.03,0.25,-9.81,0.0,0.0,0.0,-18.87,28.56,34.37
1475.371655,0.04,0.22,-9.77,0.0,0.0,0.0,-19.25,29.0,32.75
1475.395692,0.07,0.26,-9.8,0.0,0.0,0.0,-19.25,29.0,32.75
1475.415685,0.05,0.27,-9.78,0.0,0.0,0.0,-18.5,29.0,32.37
1475.43964,0.02,0.26,-9.8,0.0,0.0,0.0,-18.5,29.0,32.37
1475.463651,0.04,0.23,-9.81,0.0,0.0,0.0,-18.5,29.0,32.37
1475.483771,0.06,0.24,-9.76,0.0,0.0,0.0,-19.56,29.0,32.75
1475.5077,0.04,0.24,-9.82,0.0,0.0,0.0,-19.56,29.0,32.75
1475.531737,0.05,0.23,-9.76,0.0,0.0,0.0,-19.56,29.0,32.75
1475.551759,0.03,0.23,-9.77,0.0,0.0,0.0,-18.87,29.37,34.37
1475.57571,0.07,0.24,-9.77,0.0,0.0,0.0,-19.25,28.56,33.18
1475.599738,0.03,0.24,-9.77,0.0,0.0,0.0,-19.25,28.56,33.18
1475.619748,0.04,0.22,-9.77,0.0,0.0,0.0,-19.25,28.56,33.18
1475.643706,0.05,0.24,-9.77,0.0,0.0,0.0,-19.56,28.56,33.56
1475.663733,0.05,0.24,-9.78,0.0,0.0,0.0,-19.56,28.56,33.56
1475.687747,0.04,0.26,-9.77,0.0,0.0,0.0,-19.25,29.0,32.75
1475.711706,0.03,0.24,-9.77,0.0,0.0,0.0,-19.25,29.0,32.75
1475.731632,0.03,0.22,-9.78,0.0,0.0,0.0,-19.25,29.0,32.75
1475.755604,0.03,0.23,-9.76,0.0,0.0,0.0,-19.25,29.0,33.56
1475.779638,0.05,0.23,-9.81,0.0,0.0,0.0,-19.25,29.0,33.56
1475.799646,0.05,0.25,-9.77,0.0,0.0,0.0,-18.5,27.87,34.0
1475.823611,0.03,0.25,-9.77,0.0,0.0,0.0,-18.5,27.87,34.0
1475.843699,0.02,0.24,-9.77,0.0,0.0,0.0,-18.5,27.87,34.0
1475.867459,0.02,0.23,-9.75,0.0,0.0,0.0,-20.0,29.0,32.0
1475.891682,0.05,0.23,-9.78,0.0,0.0,0.0,-20.0,29.0,32.0
1475.911763,0.06,0.24,-9.74,0.0,0.0,0.0,-18.06,29.37,33.18
1475.935714,0.04,0.25,-9.78,0.0,0.0,0.0,-18.06,29.37,33.18
1475.959674,0.05,0.24,-9.75,0.0,0.0,0.0,-18.06,29.37,33.18
1475.979737,0.03,0.24,-9.78,0.0,0.0,0.0,-18.87,28.56,33.18
1476.003779,0.02,0.24,-9.81,0.0,0.0,0.0,-18.87,28.56,33.18
1476.023764,0.05,0.24,-9.76,0.0,0.0,0.0,-18.5,29.0,33.18
1476.047743,0.05,0.23,-9.77,0.0,0.0,0.0,-18.5,29.0,33.18
1476.071735,0.03,0.25,-9.77,0.0,0.0,0.0,-18.5,29.0,33.18
1476.091751,0.03,0.24,-9.76,0.0,0.0,0.0,-19.56,28.56,32.37
1476.115768,0.05,0.24,-9.78,0.0,0.0,0.0,-19.56,29.37,34.0
1476.13974,0.04,0.25,-9.75,0.0,0.0,0.0,-19.56,29.0,32.0
1476.159776,0.02,0.2,-9.75,0.0,0.0,0.0,-19.56,29.0,32.0
1476.183782,0.04,0.24,-9.76,0.0,0.0,0.0,-18.87,28.56,33.56
1476.203791,0.08,0.25,-9.77,0.0,0.0,0.0,-18.87,28.56,33.56
1476.227795,0.06,0.23,-9.8,0.0,0.0,0.0,-18.87,28.56,33.56
1476.251875,0.02,0.24,-9.77,0.0,0.0,0.0,-19.25,29.0,33.18
1476.271828,0.02,0.24,-9.77,0.0,0.0,0.0,-19.25,29.0,33.18
1476.295749,0.05,0.24,-9.8,0.0,0.0,0.0,-19.25,29.37,33.56
1476.319671,0.05,0.25,-9.77,0.0,0.0,0.0,-19.25,29.37,33.56
1476.339652,0.07,0.25,-9.77,0.0,0.0,0.0,-19.25,29.37,33.56
1476.363714,0.06,0.24,-9.75,0.0,0.0,0.0,-19.25,28.56,32.0
1476.383782,0.01,0.23,-9.81,0.0,0.0,0.0,-19.25,28.56,32.0
1476.407643,0.03,0.23,-9.78,0.0,0.0,0.0,-19.56,29.37,33.18
1476.431723,0.05,0.24,-9.72,0.0,0.0,0.0,-19.56,29.37,33.18
1476.451884,0.06,0.24,-9.78,0.0,0.0,0.0,-19.56,29.37,33.18
1476.475747,0.04,0.27,-9.78,0.0,0.0,0.0,-18.87,29.37,33.18
1476.499759,0.02,0.22,-9.78,0.0,0.0,0.0,-18.87,29.37,33.18
1476.519743,0.01,0.21,-9.77,0.0,0.0,0.0,-18.87,28.25,33.18
1476.543684,0.05,0.21,-9.75,0.0,0.0,0.0,-18.87,28.25,33.18
1476.563758,0.06,0.25,-9.8,0.0,0.0,0.0,-18.87,28.25,33.18
1476.587759,0.06,0.28,-9.75,0.0,0.0,0.0,-19.56,28.56,32.75
1476.611811,0.03,0.23,-9.81,0.0,0.0,0.0,-19.56,28.56,32.75
1476.631807,0.02,0.22,-9.77,0.0,0.0,0.0,-19.25,29.0,33.56
1476.655813,0.01,0.23,-9.78,0.0,0.0,0.0,-19.25,28.56,32.37
1476.679794,0.03,0.2,-9.77,0.0,0.0,0.0,-20.0,29.0,33.56
1476.699799,0.05,0.24,-9.8,0.0,0.0,0.0,-20.0,29.0,33.56
1476.723799,0.05,0.24,-9.78,0.0,0.0,0.0,-20.0,29.0,33.56
1476.743795,0.05,0.25,-9.77,0.0,0.0,0.0,-18.87,28.56,32.37
1476.767682,0.03,0.24,-9.81,0.0,0.0,0.0,-18.87,28.56,32.37
1476.791709,0.03,0.22,-9.75,0.0,0.0,0.0,-18.87,29.0,34.0
1476.811752,0.05,0.24,-9.8,0.0,0.0,0.0,-18.87,29.0,34.0
1476.835713,0.08,0.26,-9.75,0.0,0.0,0.0,-18.87,29.0,34.0
1476.85972,0.07,0.25,-9.83,0.0,0.0,0.0,-19.25,29.37,32.75
1476.879706,0.04,0.23,-9.75,0.0,0.0,0.0,-19.25,29.37,32.75
1476.903713,0.04,0.24,-9.77,0.0,0.0,0.0,-19.25,29.37,33.18
1476.927714,0.03,0.22,-9.77,0.0,0.0,0.0,-19.25,29.37,33.18
1476.947706,0.06,0.25,-9.8,0.0,0.0,0.0,-19.25,29.37,33.18
1476.971644,0.04,0.23,-9.74,0.0,0.0,0.0,-19.25,28.56,32.75
1476.991637,0.04,0.24,-9.81,0.0,0.0,0.0,-19.25,28.56,32.75
1477.015616,0.03,0.24,-9.74,0.0,0.0,0.0,-19.25,29.0,32.75
1477.039605,0.02,0.23,-9.78,0.0,0.0,0.0,-19.25,29.0,32.75
1477.059587,0.05,0.24,-9.75,0.0,0.0,0.0,-19.25,29.0,32.75
1477.083588,0.04,0.24,-9.8,0.0,0.0,0.0,-18.87,29.0,32.37
1477.107594,0.04,0.24,-9.76,0.0,0.0,0.0,-18.87,29.0,32.37
1477.12772,0.04,0.24,-9.77,0.0,0.0,0.0,-19.56,29.0,34.0
1477.151629,0.02,0.23,-9.8,0.0,0.0,0.0,-19.56,29.0,34.0
1477.171696,0.04,0.24,-9.78,0.0,0.0,0.0,-19.56,29.0,34.0
1477.195684,0.05,0.25,-9.77,0.0,0.0,0.0,-20.37,29.0,32.37
1477.219699,0.02,0.24,-9.78,0.0,0.0,0.0,-20.37,29.0,32.37
1477.239711,0.04,0.24,-9.77,0.0,0.0,0.0,-19.25,29.0,32.37
1477.263702,0.03,0.23,-9.82,0.0,0.0,0.0,-19.25,29.0,32.37
1477.287716,0.07,0.24,-9.77,0.0,0.0,0.0,-19.25,29.0,33.56
1477.319708,0.04,0.24,-9.81,0.0,0.0,0.0,-19.25,29.0,33.56
1477.343723,0.03,0.23,-9.77,0.0,0.0,0.0,-19.25,29.0,33.56
1477.363701,0.02,0.24,-9.78,0.0,0.0,0.0,-20.0,28.56,32.37
1477.387621,0.06,0.25,-9.77,0.0,0.0,0.0,-20.0,28.56,32.37
1477.407722,0.06,0.24,-9.8,0.0,0.0,0.0,-19.56,29.37,33.18
1477.431699,0.05,0.25,-9.78,0.0,0.0,0.0,-19.56,29.37,33.18
1477.455458,0.05,0.25,-9.77,0.0,0.0,0.0,-19.56,29.37,33.18
1477.475645,0.04,0.27,-9.76,0.0,0.0,0.0,-19.56,29.0,33.18
1477.511734,0.05,0.24,-9.75,0.0,0.0,0.0,-19.56,29.0,33.18
1477.531752,0.04,0.23,-9.75,0.0,0.0,0.0,-18.5,29.75,33.18
1477.555704,0.05,0.23,-9.77,0.0,0.0,0.0,-18.5,29.75,33.18
1477.579669,0.04,0.22,-9.78,0.0,0.0,0.0,-18.5,29.75,33.18
1477.599754,0.04,0.25,-9.77,0.0,0.0,0.0,-20.37,28.25,32.75
1477.623707,0.05,0.24,-9.77,0.0,0.0,0.0,-19.25,29.75,32.75
1477.647712,0.03,0.25,-9.77,0.0,0.0,0.0,-18.87,29.37,32.37
1477.667888,0.02,0.26,-9.76,0.0,0.0,0.0,-18.87,29.37,32.37
1477.691838,0.04,0.24,-9.77,0.0,0.0,0.0,-18.87,28.56,32.75
1477.71175,0.03,0.24,-9.78,0.0,0.0,0.0,-18.87,28.56,32.75
1477.735742,0.06,0.25,-9.75,0.0,0.0,0.0,-18.87,28.56,32.75
1477.759687,0.04,0.22,-9.81,0.0,0.0,0.0,-18.5,28.25,32.37
1477.779741,0.03,0.27,-9.76,0.0,0.0,0.0,-18.5,28.25,32.37
1477.803677,0.02,0.24,-9.77,0.0,0.0,0.0,-19.25,28.25,32.37
1477.827755,0.03,0.25,-9.77,0.0,0.0,0.0,-19.25,28.25,32.37
1477.847705,0.06,0.24,-9.76,0.0,0.0,0.0,-19.25,28.25,32.37
1477.871712,0.06,0.24,-9.77,0.0,0.0,0.0,-18.87,29.0,32.37
1477.891699,0.05,0.24,-9.77,0.0,0.0,0.0,-18.87,29.0,32.37
1477.915744,0.02,0.25,-9.77,0.0,0.0,0.0,-19.25,29.0,32.75
1477.939697,0.05,0.26,-9.77,0.0,0.0,0.0,-19.25,29.0,32.75
1477.959622,0.03,0.24,-9.78,0.0,0.0,0.0,-19.25,29.0,32.75
1477.983786,0.05,0.23,-9.77,0.0,0.0,0.0,-19.56,28.56,32.0
1478.007801,0.05,0.24,-9.78,0.0,0.0,0.0,-19.56,28.56,32.0
1478.027824,0.05,0.25,-9.77,0.0,0.0,0.0,-19.56,29.37,34.0
1478.051744,0.01,0.27,-9.82,0.0,0.0,0.0,-19.56,29.37,34.0
1478.0718,0.04,0.25,-9.75,0.0,0.0,0.0,-19.56,29.37,34.0
1478.095793,0.02,0.23,-9.78,0.0,0.0,0.0,-18.87,29.37,33.56
1478.119841,0.06,0.27,-9.77,0.0,0.0,0.0,-18.87,29.37,33.56
1478.139795,0.04,0.25,-9.77,0.0,0.0,0.0,-19.56,29.37,32.37
1478.163835,0.05,0.24,-9.77,0.0,0.0,0.0,-19.56,29.37,32.37
1478.187787,0.04,0.24,-9.76,0.0,0.0,0.0,-18.5,29.0,33.18
1478.207804,0.05,0.25,-9.78,0.0,0.0,0.0,-18.5,29.0,33.18
1478.231837,0.04,0.24,-9.8,0.0,0.0,0.0,-18.5,29.0,33.18
1478.251811,0.03,0.25,-9.75,0.0,0.0,0.0,-18.87,28.56,32.37
1478.275796,0.04,0.26,-9.8,0.0,0.0,0.0,-18.87,28.56,32.37
1478.299857,0.04,0.23,-9.74,0.0,0.0,0.0,-18.87,28.56,33.18
1478.319812,0.01,0.25,-9.78,0.0,0.0,0.0,-18.87,28.56,33.18
1478.343801,0.06,0.25,-9.75,0.0,0.0,0.0,-18.87,28.56,33.18
1478.367824,0.04,0.24,-9.77,0.0,0.0,0.0,-20.37,29.0,34.0
1478.387806,0.04,0.22,-9.77,0.0,0.0,0.0,-20.37,29.0,34.0
1478.411684,0.05,0.25,-9.77,0.0,0.0,0.0,-19.56,29.37,32.75
1478.431825,0.04,0.24,-9.77,0.0,0.0,0.0,-19.56,29.37,32.75
1478.455718,0.04,0.23,-9.77,0.0,0.0,0.0,-19.56,29.37,32.75
1478.479717,0.04,0.22,-9.77,0.0,0.0,0.0,-19.25,29.0,32.75
1478.499768,0.05,0.25,-9.77,0.0,0.0,0.0,-19.25,29.0,32.75
1478.535742,0.01,0.24,-9.77,0.0,0.0,0.0,-18.5,29.0,32.75
1478.555734,0.04,0.24,-9.81,0.0,0.0,0.0,-18.5,29.0,32.75
1478.579639,0.05,0.25,-9.75,0.0,0.0,0.0,-18.5,29.0,32.75
1478.603831,0.04,0.24,-9.77,0.0,0.0,0.0,-19.56,29.37,32.37
1478.635845,0.05,0.23,-9.77,0.0,0.0,0.0,-19.56,29.37,32.37
1478.659839,0.03,0.27,-9.77,0.0,0.0,0.0,-19.56,29.75,32.75
1478.67983,0.01,0.24,-9.73,0.0,0.0,0.0,-19.56,29.75,32.75
1478.703832,-0.01,0.24,-9.73,0.0,0.0,0.0,-19.25,29.37,32.37
1478.727802,0.0,0.26,-9.77,0.0,0.0,0.0,-19.25,29.37,32.37
1478.747834,0.07,0.26,-9.77,0.0,0.0,0.0,-19.25,29.37,32.37
1478.771796,0.19,0.2,-9.83,0.0,0.0,0.0,-19.25,29.0,32.75
1478.795767,0.12,0.18,-9.83,0.0,0.0,0.0,-19.25,29.0,32.75
1478.815844,-0.02,0.2,-9.75,0.0,0.0,0.0,-20.0,29.0,33.18
1478.8398,-0.06,0.3,-9.71,0.0,0.0,0.0,-20.0,29.0,33.18
1478.859803,0.02,0.33,-9.77,0.0,0.0,0.0,-20.0,29.0,33.18
1478.883837,0.12,0.28,-9.83,0.0,0.0,0.0,-19.25,28.56,32.75
1478.907813,0.12,0.24,-9.84,0.0,0.0,0.0,-19.25,28.56,32.75
1478.927804,0.03,0.16,-9.75,0.0,0.0,0.0,-19.56,29.0,32.37
1478.951892,0.0,0.19,-9.75,0.0,0.0,0.0,-19.56,29.0,32.37
1478.975673,0.02,0.27,-9.75,0.0,0.0,0.0,-19.56,29.0,32.37
1478.995757,0.02,0.18,-9.75,0.0,0.0,0.0,-19.25,28.56,32.0
1479.01984,0.04,0.23,-9.78,0.0,0.0,0.0,-19.25,28.56,32.0
1479.039682,0.08,0.26,-9.77,0.0,0.0,0.0,-18.87,29.37,32.37
1479.063847,0.08,0.26,-9.81,0.0,0.0,0.0,-18.87,29.37,32.37
1479.087803,0.07,0.24,-9.74,0.0,0.0,0.0,-19.25,28.56,33.18
1479.107729,0.01,0.23,-9.8,0.0,0.0,0.0,-19.25,28.56,33.18
1479.131849,0.01,0.24,-9.75,0.0,0.0,0.0,-19.25,28.56,33.18
1479.155802,0.02,0.24,-9.77,0.0,0.0,0.0,-19.25,29.37,32.75
1479.175796,0.09,0.26,-9.8,0.0,0.0,0.0,-19.25,29.37,32.75
1479.199834,0.11,0.21,-9.8,0.0,0.0,0.0,-18.87,29.37,32.37
1479.219835,0.02,0.21,-9.77,0.0,0.0,0.0,-18.87,29.37,32.37
1479.243822,0.01,0.25,-9.74,0.0,0.0,0.0,-18.87,29.37,32.37
1479.267839,0.0,0.28,-9.77,0.0,0.0,0.0,-19.56,29.0,33.18
1479.287803,0.03,0.27,-9.77,0.0,0.0,0.0,-19.56,29.0,33.18
1479.311777,0.06,0.23,-9.78,0.0,0.0,0.0,-18.87,28.25,33.56
1479.33575,0.07,0.21,-9.8,0.0,0.0,0.0,-18.87,28.25,33.56
1479.355716,0.05,0.19,-9.8,0.0,0.0,0.0,-18.87,28.25,33.56
1479.379757,0.01,0.23,-9.76,0.0,0.0,0.0,-19.25,29.37,32.37
1479.39976,0.03,0.27,-9.77,0.0,0.0,0.0,-19.25,29.37,32.37
1479.423797,0.04,0.27,-9.8,0.0,0.0,0.0,-18.87,29.0,31.56
1479.448231,0.06,0.26,-9.78,0.0,0.0,0.0,-18.87,29.0,31.56
1479.467762,0.05,0.25,-9.77,0.0,0.0,0.0,-18.87,29.0,31.56
1479.491724,0.04,0.24,-9.77,0.0,0.0,0.0,-19.56,29.37,32.0
1479.515815,0.04,0.24,-9.82,0.0,0.0,0.0,-19.56,29.37,32.0
1479.535774,0.04,0.26,-9.77,0.0,0.0,0.0,-19.25,28.25,32.75
1479.559811,0.05,0.24,-9.77,0.0,0.0,0.0,-19.25,28.25,32.75
1479.57973,0.06,0.24,-9.8,0.0,0.0,0.0,-19.25,29.75,33.56
1479.603768,0.06,0.24,-9.77,0.0,0.0,0.0,-19.25,29.75,33.56
1479.627742,0.04,0.24,-9.78,0.0,0.0,0.0,-19.25,29.75,33.56
1479.651613,0.03,0.25,-9.77,0.0,0.0,0.0,-19.56,29.0,32.37
1479.671737,0.04,0.25,-9.78,0.0,0.0,0.0,-19.56,29.0,32.37
1479.695784,0.04,0.26,-9.75,0.0,0.0,0.0,-19.25,29.0,32.0
1479.715764,0.05,0.24,-9.8,0.0,0.0,0.0,-19.25,29.0,32.0
1479.739743,0.06,0.22,-9.77,0.0,0.0,0.0,-19.25,29.0,32.0
1479.759724,0.06,0.21,-9.77,0.0,0.0,0.0,-19.25,28.25,32.75
1479.783823,0.03,0.24,-9.81,0.0,0.0,0.0,-19.25,28.25,32.75
1479.807816,0.02,0.28,-9.75,0.0,0.0,0.0,-19.25,28.56,32.37
1479.827817,0.03,0.28,-9.8,0.0,0.0,0.0,-19.25,28.56,32.37
1479.851718,0.02,0.27,-9.74,0.0,0.0,0.0,-19.25,28.56,32.37
1479.875874,0.05,0.24,-9.77,0.0,0.0,0.0,-20.0,29.0,31.56
1479.895789,0.08,0.22,-9.76,0.0,0.0,0.0,-20.0,29.0,31.56
1479.919835,0.03,0.24,-9.82,0.0,0.0,0.0,-19.56,29.75,32.37
1479.939814,0.04,0.26,-9.81,0.0,0.0,0.0,-19.56,29.75,32.37
1479.963849,0.02,0.28,-9.77,0.0,0.0,0.0,-19.56,29.75,32.37
1479.987813,0.02,0.25,-9.8,0.0,0.0,0.0,-18.87,28.56,33.18
1480.007755,0.03,0.21,-9.74,0.0,0.0,0.0,-18.87,28.56,33.18
1480.031764,0.02,0.21,-9.77,0.0,0.0,0.0,-19.25,28.56,32.0
1480.055826,0.07,0.24,-9.76,0.0,0.0,0.0,-19.25,28.56,32.0
1480.075764,0.04,0.24,-9.76,0.0,0.0,0.0,-19.25,28.56,32.75
1480.099799,0.03,0.22,-9.78,0.0,0.0,0.0,-19.25,28.56,32.75
1480.123812,0.08,0.23,-9.76,0.0,0.0,0.0,-19.25,28.56,32.75
1480.143801,0.05,0.27,-9.77,0.0,0.0,0.0,-19.25,29.37,32.75
1480.167807,0.06,0.26,-9.78,0.0,0.0,0.0,-19.25,29.37,32.75
1480.187804,0.04,0.26,-9.77,0.0,0.0,0.0,-19.56,29.0,33.18
1480.211792,0.04,0.23,-9.77,0.0,0.0,0.0,-19.56,29.0,33.18
1480.235821,0.05,0.22,-9.77,0.0,0.0,0.0,-19.56,29.0,33.18
1480.255791,0.04,0.24,-9.77,0.0,0.0,0.0,-19.56,28.56,32.37
1480.280043,0.05,0.24,-9.77,0.0,0.0,0.0,-19.56,28.56,32.37
1480.303744,0.06,0.26,-9.78,0.0,0.0,0.0,-19.56,29.0,32.75
1480.323744,0.04,0.24,-9.81,0.0,0.0,0.0,-19.56,29.0,32.75
1480.347792,0.05,0.25,-9.76,0.0,0.0,0.0,-19.56,29.0,32.75
1480.367783,0.06,0.24,-9.81,0.0,0.0,0.0,-19.56,29.37,33.56
1480.391791,0.05,0.26,-9.82,0.0,0.0,0.0,-19.56,29.37,33.56
1480.415813,0.06,0.25,-9.77,0.0,0.0,0.0,-18.87,28.56,32.75
1480.435836,0.02,0.22,-9.84,0.0,0.0,0.0,-18.87,28.56,32.75
1480.459832,0.02,0.23,-9.76,0.0,0.0,0.0,-18.87,28.56,32.75
1480.483824,0.05,0.23,-9.81,0.0,0.0,0.0,-18.87,29.0,32.37
1480.503838,0.03,0.24,-9.77,0.0,0.0,0.0,-18.87,29.0,32.37
1480.527835,0.06,0.25,-9.77,0.0,0.0,0.0,-18.87,28.56,32.37
1480.547855,0.05,0.27,-9.77,0.0,0.0,0.0,-18.87,28.56,32.37
1480.57182,0.03,0.25,-9.75,0.0,0.0,0.0,-18.87,28.56,32.37
1480.595844,0.06,0.23,-9.77,0.0,0.0,0.0,-19.56,29.75,33.56
1480.615856,0.05,0.23,-9.77,0.0,0.0,0.0,-19.25,29.0,32.37
1480.639832,0.03,0.24,-9.75,0.0,0.0,0.0,-19.25,29.0,32.37
1480.663812,0.01,0.25,-9.81,0.0,0.0,0.0,-19.25,29.0,32.37
1480.683789,0.04,0.24,-9.77,0.0,0.0,0.0,-18.5,29.0,33.56
1480.707826,0.06,0.26,-9.82,0.0,0.0,0.0,-18.5,29.0,33.56
1480.72788,0.07,0.24,-9.74,0.0,0.0,0.0,-18.5,29.0,33.56
1480.751871,0.01,0.24,-9.78,0.0,0.0,0.0,-19.25,28.56,33.56
1480.775807,0.05,0.22,-9.72,0.0,0.0,0.0,-19.25,28.56,33.56
1480.795848,0.02,0.23,-9.86,0.0,0.0,0.0,-19.56,29.0,32.75
1480.819863,0.07,0.25,-9.76,0.0,0.0,0.0,-19.56,29.0,32.75
1480.843858,0.07,0.25,-9.82,0.0,0.0,0.0,-19.56,29.0,32.75
1480.868777,0.07,0.24,-9.73,0.0,0.0,0.0,-19.25,29.0,34.0
1480.887708,0.02,0.24,-9.85,0.0,0.0,0.0,-19.25,29.0,34.0
1480.907678,0.03,0.26,-9.73,0.0,0.0,0.0,-19.56,28.56,33.18
1480.931775,0.03,0.23,-9.84,0.0,0.0,0.0,-19.56,28.56,33.18
1480.955751,0.05,0.24,-9.78,0.0,0.0,0.0,-19.56,28.56,33.18
1480.975661,0.07,0.24,-9.78,0.0,0.0,0.0,-20.37,28.56,33.56
1480.999772,0.04,0.24,-9.78,0.0,0.0,0.0,-20.37,28.56,33.56
1481.023736,0.0,0.24,-9.77,0.0,0.0,0.0,-18.5,29.0,33.56
1481.043662,0.04,0.24,-9.74,0.0,0.0,0.0,-18.5,29.0,33.56
1481.067954,0.06,0.22,-9.77,0.0,0.0,0.0,-18.5,29.0,33.56
1481.087794,0.09,0.23,-9.77,0.0,0.0,0.0,-20.37,29.0,33.18
1481.111842,0.05,0.23,-9.81,0.0,0.0,0.0,-20.37,29.0,33.18
1481.135661,0.06,0.24,-9.78,0.0,0.0,0.0,-20.0,28.25,34.0
1481.155797,0.06,0.24,-9.77,0.0,0.0,0.0,-18.87,29.0,33.18
1481.18383,0.03,0.25,-9.77,0.0,0.0,0.0,-19.25,28.56,34.37
1481.203773,0.04,0.25,-9.8,0.0,0.0,0.0,-19.25,28.56,34.37
1481.223731,0.03,0.23,-9.77,0.0,0.0,0.0,-19.25,28.56,34.37
1481.247786,0.03,0.23,-9.81,0.0,0.0,0.0,-19.25,29.0,32.75
1481.267845,0.05,0.23,-9.77,0.0,0.0,0.0,-19.25,29.0,32.75
1481.291684,0.05,0.25,-9.76,0.0,0.0,0.0,-19.25,28.56,34.0
1481.315844,0.05,0.24,-9.8,0.0,0.0,0.0,-19.25,28.56,34.0
1481.335835,0.05,0.24,-9.77,0.0,0.0,0.0,-19.25,28.56,34.0
1481.359769,0.05,0.25,-9.77,0.0,0.0,0.0,-19.25,29.0,32.0
1481.383762,0.03,0.24,-9.77,0.0,0.0,0.0,-19.25,29.0,32.0
1481.403793,0.06,0.24,-9.76,0.0,0.0,0.0,-18.5,29.0,32.75
1481.427757,0.03,0.24,-9.8,0.0,0.0,0.0,-18.5,29.0,32.75
1481.447798,0.04,0.24,-9.76,0.0,0.0,0.0,-18.5,29.0,32.75
1481.471799,0.03,0.23,-9.78,0.0,0.0,0.0,-18.87,29.0,33.56
1481.495591,0.06,0.23,-9.77,0.0,0.0,0.0,-18.87,29.0,33.56
1481.515791,0.04,0.25,-9.8,0.0,0.0,0.0,-19.56,29.0,32.37
1481.539745,0.05,0.26,-9.77,0.0,0.0,0.0,-19.56,29.0,32.37
1481.563843,0.03,0.24,-9.78,0.0,0.0,0.0,-19.56,29.0,32.37
1481.583664,0.03,0.23,-9.76,0.0,0.0,0.0,-19.56,29.37,33.18
1481.607806,0.04,0.25,-9.77,0.0,0.0,0.0,-19.56,29.37,33.18
1481.627669,0.04,0.25,-9.77,0.0,0.0,0.0,-19.56,27.87,32.75
1481.651845,0.03,0.24,-9.77,0.0,0.0,0.0,-19.56,27.87,32.75
1481.675813,0.03,0.24,-9.77,0.0,0.0,0.0,-19.56,29.37,33.56
1481.695847,0.06,0.24,-9.78,0.0,0.0,0.0,-18.87,28.56,31.56
1481.719842,0.05,0.24,-9.77,0.0,0.0,0.0,-19.56,29.0,33.18
1481.743799,0.03,0.24,-9.78,0.0,0.0,0.0,-19.56,29.0,33.18
1481.763741,0.04,0.26,-9.77,0.0,0.0,0.0,-19.56,29.0,33.18
1481.787768,0.06,0.25,-9.77,0.0,0.0,0.0,-18.06,28.56,32.75
1481.807767,0.07,0.25,-9.78,0.0,0.0,0.0,-18.06,28.56,32.75
1481.831761,0.03,0.27,-9.74,0.0,0.0,0.0,-19.56,29.0,33.18
1481.855719,0.04,0.24,-9.8,0.0,0.0,0.0,-19.56,29.0,33.18
1481.875728,0.05,0.24,-9.76,0.0,0.0,0.0,-19.56,29.0,33.18
1481.899683,0.05,0.23,-9.77,0.0,0.0,0.0,-19.25,28.25,32.0
1481.923701,0.05,0.23,-9.8,0.0,0.0,0.0,-19.25,28.25,32.0
1481.943819,0.04,0.26,-9.77,0.0,0.0,0.0,-19.25,28.56,32.37
1481.967755,0.05,0.24,-9.77,0.0,0.0,0.0,-19.25,28.56,32.37
1481.991794,0.05,0.25,-9.78,0.0,0.0,0.0,-19.25,28.56,32.37
1482.011842,0.03,0.24,-9.77,0.0,0.0,0.0,-19.25,29.75,32.37
1482.035848,0.05,0.23,-9.77,0.0,0.0,0.0,-19.25,29.75,32.37
1482.055802,0.05,0.24,-9.77,0.0,0.0,0.0,-20.37,29.37,33.18
1482.079852,0.06,0.26,-9.8,0.0,0.0,0.0,-20.37,29.37,33.18
1482.103802,0.04,0.24,-9.8,0.0,0.0,0.0,-20.37,29.37,33.18
1482.123801,0.04,0.24,-9.74,0.0,0.0,0.0,-19.56,28.56,32.75
1482.147841,0.05,0.24,-9.78,0.0,0.0,0.0,-19.56,28.56,32.75
1482.171812,0.03,0.25,-9.78,0.0,0.0,0.0,-18.87,28.56,32.75
1482.191812,0.04,0.22,-9.77,0.0,0.0,0.0,-18.87,28.56,32.75
1482.215861,0.04,0.24,-9.77,0.0,0.0,0.0,-18.87,28.56,32.75
1482.235803,0.04,0.24,-9.77,0.0,0.0,0.0,-18.5,28.56,34.0
1482.259807,0.06,0.26,-9.76,0.0,0.0,0.0,-18.5,28.56,34.0
1482.28781,0.06,0.25,-9.75,0.0,0.0,0.0,-20.0,28.56,32.37
1482.303744,0.04,0.26,-9.78,0.0,0.0,0.0,-20.0,28.56,32.37
1482.327714,0.04,0.23,-9.76,0.0,0.0,0.0,-19.56,29.0,34.0
1482.351852,0.07,0.25,-9.77,0.0,0.0,0.0,-19.56,29.0,34.0
1482.371721,0.05,0.23,-9.77,0.0,0.0,0.0,-19.56,29.0,34.0
1482.395749,0.03,0.23,-9.81,0.0,0.0,0.0,-18.87,28.25,32.37
1482.427836,0.04,0.23,-9.75,0.0,0.0,0.0,-18.87,28.25,32.37
1482.451768,0.05,0.23,-9.78,0.0,0.0,0.0,-19.25,29.0,33.18
1482.471727,0.05,0.23,-9.75,0.0,0.0,0.0,-19.25,29.0,33.18
1482.495799,0.05,0.26,-9.75,0.0,0.0,0.0,-19.25,29.0,33.18
1482.519798,0.02,0.24,-9.78,0.0,0.0,0.0,-19.25,29.0,32.37
1482.539805,0.06,0.24,-9.77,0.0,0.0,0.0,-19.25,29.0,32.37
1482.563799,0.05,0.25,-9.77,0.0,0.0,0.0,-20.0,29.0,33.56
1482.587815,0.03,0.26,-9.77,0.0,0.0,0.0,-20.0,29.0,33.56
1482.607794,0.03,0.24,-9.75,0.0,0.0,0.0,-20.0,29.0,33.56
1482.631844,0.05,0.24,-9.8,0.0,0.0,0.0,-19.25,29.0,32.75
1482.651772,0.05,0.24,-9.76,0.0,0.0,0.0,-19.25,29.0,32.75
1482.675889,0.05,0.24,-9.78,0.0,0.0,0.0,-19.25,28.56,33.18
1482.699845,0.05,0.26,-9.77,0.0,0.0,0.0,-19.25,29.0,32.75
1482.719792,0.05,0.24,-9.81,0.0,0.0,0.0,-18.87,29.0,33.56
1482.743853,0.05,0.25,-9.77,0.0,0.0,0.0,-18.87,29.0,33.56
1482.767845,0.04,0.25,-9.8,0.0,0.0,0.0,-18.87,29.0,33.56
1482.787621,0.06,0.23,-9.77,0.0,0.0,0.0,-19.56,29.0,32.0
1482.811639,0.05,0.22,-9.78,0.0,0.0,0.0,-19.56,29.0,32.0
1482.835773,0.07,0.25,-9.77,0.0,0.0,0.0,-18.5,28.56,33.56
1482.85581,0.06,0.25,-9.82,0.0,0.0,0.0,-18.5,28.56,33.56
1482.879835,0.02,0.26,-9.74,0.0,0.0,0.0,-18.5,28.56,33.56
1482.899815,0.01,0.24,-9.77,0.0,0.0,0.0,-19.25,28.56,32.75
1482.923805,0.03,0.24,-9.77,0.0,0.0,0.0,-19.25,28.56,32.75
1482.947824,0.05,0.23,-9.78,0.0,0.0,0.0,-19.25,29.0,31.56
1482.967808,0.08,0.25,-9.77,0.0,0.0,0.0,-19.25,29.0,31.56
1482.991798,0.05,0.25,-9.78,0.0,0.0,0.0,-19.25,29.0,31.56
1483.015832,0.03,0.25,-9.77,0.0,0.0,0.0,-19.25,29.37,33.18
1483.035887,0.02,0.24,-9.78,0.0,0.0,0.0,-19.25,29.37,33.18
1483.059808,0.06,0.24,-9.78,0.0,0.0,0.0,-19.25,28.56,33.56
1483.079804,0.06,0.22,-9.78,0.0,0.0,0.0,-19.25,28.56,33.56
1483.103652,0.06,0.23,-9.77,0.0,0.0,0.0,-19.25,28.56,33.56
1483.127801,0.03,0.28,-9.77,0.0,0.0,0.0,-19.25,29.75,32.75
1483.147798,0.03,0.27,-9.74,0.0,0.0,0.0,-19.25,29.75,32.75
1483.171801,0.04,0.23,-9.77,0.0,0.0,0.0,-19.25,29.0,32.37
1483.195808,0.05,0.24,-9.78,0.0,0.0,0.0,-19.25,29.0,32.37
1483.215798,0.06,0.24,-9.8,0.0,0.0,0.0,-19.25,29.0,32.37
1483.239804,0.05,0.24,-9.77,0.0,0.0,0.0,-19.56,29.75,32.0
1483.259801,0.04,0.23,-9.77,0.0,0.0,0.0,-19.56,29.75,32.0
1483.283584,0.06,0.24,-9.77,0.0,0.0,0.0,-19.56,29.37,32.75
1483.307665,0.03,0.24,-9.8,0.0,0.0,0.0,-19.56,29.37,32.75
1483.327734,0.03,0.26,-9.76,0.0,0.0,0.0,-18.87,28.56,32.75
1483.351798,0.04,0.26,-9.78,0.0,0.0,0.0,-18.87,28.56,32.75
1483.375794,0.04,0.23,-9.77,0.0,0.0,0.0,-18.87,28.56,32.75
1483.395759,0.06,0.22,-9.78,0.0,0.0,0.0,-20.0,29.75,32.37
1483.419793,0.04,0.24,-9.78,0.0,0.0,0.0,-20.0,29.75,32.37
1483.439803,0.04,0.24,-9.75,0.0,0.0,0.0,-19.56,28.25,33.56
1483.463549,0.05,0.25,-9.82,0.0,0.0,0.0,-19.56,28.25,33.56
1483.487646,0.05,0.25,-9.74,0.0,0.0,0.0,-19.56,28.25,33.56
1483.507741,0.06,0.23,-9.77,0.0,0.0,0.0,-19.25,29.0,32.0
1483.531723,0.03,0.25,-9.76,0.0,0.0,0.0,-19.25,29.0,32.0
1483.555791,0.03,0.23,-9.77,0.0,0.0,0.0,-18.87,28.56,33.56
1483.575783,0.05,0.25,-9.78,0.0,0.0,0.0,-18.87,28.56,33.56
1483.599789,0.05,0.24,-9.78,0.0,0.0,0.0,-18.87,28.56,33.56
1483.619795,0.04,0.26,-9.81,0.0,0.0,0.0,-18.5,29.0,32.37
1483.643802,0.04,0.24,-9.77,0.0,0.0,0.0,-18.5,29.0,32.37
1483.667794,0.04,0.21,-9.77,0.0,0.0,0.0,-18.87,29.0,32.37
1483.687805,0.05,0.23,-9.76,0.0,0.0,0.0,-18.87,29.0,32.37
1483.711715,0.04,0.24,-9.77,0.0,0.0,0.0,-18.87,29.0,32.37
1483.73572,0.06,0.25,-9.76,0.0,0.0,0.0,-19.56,29.0,32.0
1483.75583,0.05,0.25,-9.77,0.0,0.0,0.0,-19.56,29.0,32.0
1483.779817,0.05,0.26,-9.76,0.0,0.0,0.0,-19.25,28.56,32.37
1483.799703,0.02,0.24,-9.77,0.0,0.0,0.0,-19.25,28.56,32.37
1483.823704,0.02,0.25,-9.77,0.0,0.0,0.0,-19.25,29.0,32.75
1483.847704,0.04,0.23,-9.77,0.0,0.0,0.0,-19.25,29.0,32.75
1483.867774,0.04,0.23,-9.77,0.0,0.0,0.0,-19.25,29.0,32.75
1483.891708,0.04,0.25,-9.77,0.0,0.0,0.0,-18.87,29.75,32.75
1483.915855,0.05,0.24,-9.8,0.0,0.0,0.0,-18.87,29.75,32.75
1483.935845,0.05,0.25,-9.77,0.0,0.0,0.0,-18.5,28.56,34.0
1483.959778,0.05,0.24,-9.77,0.0,0.0,0.0,-18.5,28.56,34.0
1483.97984,0.04,0.25,-9.76,0.0,0.0,0.0,-18.5,28.56,34.0
1484.003798,0.05,0.24,-9.8,0.0,0.0,0.0,-19.56,28.56,33.18
1484.027838,0.06,0.23,-9.74,0.0,0.0,0.0,-19.56,28.56,33.18
1484.047801,0.03,0.24,-9.77,0.0,0.0,0.0,-19.25,29.0,33.56
1484.071804,0.04,0.25,-9.77,0.0,0.0,0.0,-19.25,29.0,33.56
1484.095828,0.04,0.24,-9.77,0.0,0.0,0.0,-19.25,29.0,33.56
1484.115848,0.04,0.25,-9.78,0.0,0.0,0.0,-19.25,29.0,32.75
1484.139714,0.03,0.24,-9.8,0.0,0.0,0.0,-19.25,29.0,32.75
1484.159856,0.03,0.25,-9.78,0.0,0.0,0.0,-19.25,28.56,33.56
1484.183918,0.05,0.28,-9.78,0.0,0.0,0.0,-19.25,28.56,33.56
1484.207795,0.08,0.27,-9.77,0.0,0.0,0.0,-19.25,28.56,33.56
1484.227841,0.05,0.27,-9.74,0.0,0.0,0.0,-19.56,28.56,32.75
1484.251673,0.06,0.21,-9.78,0.0,0.0,0.0,-19.56,28.56,32.75
1484.275821,0.05,0.19,-9.75,0.0,0.0,0.0,-19.25,28.56,33.18
1484.295694,0.05,0.21,-9.8,0.0,0.0,0.0,-19.25,28.56,33.18
1484.323748,0.03,0.27,-9.78,0.0,0.0,0.0,-18.87,28.56,34.0
1484.343721,0.03,0.28,-9.77,0.0,0.0,0.0,-18.87,28.56,34.0
1484.363853,0.02,0.26,-9.77,0.0,0.0,0.0,-18.87,28.56,34.0
1484.387795,0.08,0.26,-9.78,0.0,0.0,0.0,-19.25,28.56,33.56
1484.407802,0.1,0.28,-9.82,0.0,0.0,0.0,-19.25,28.56,33.56
1484.431597,0.03,0.24,-9.83,0.0,0.0,0.0,-19.25,29.37,33.18
1484.455626,0.03,0.22,-9.74,0.0,0.0,0.0,-19.25,29.37,33.18
1484.475709,0.03,0.17,-9.77,0.0,0.0,0.0,-19.25,29.37,33.18
1484.499749,0.09,0.16,-9.77,0.0,0.0,0.0,-19.56,29.37,33.18
1484.523818,0.1,0.18,-9.8,0.0,0.0,0.0,-19.56,29.37,33.18
1484.543571,0.05,0.23,-9.77,0.0,0.0,0.0,-19.25,29.0,32.0
1484.567595,0.0,0.26,-9.77,0.0,0.0,0.0,-19.25,29.0,32.0
1484.58755,0.0,0.36,-9.77,0.0,0.0,0.0,-19.25,29.0,32.0
1484.611301,0.01,0.33,-9.77,0.0,0.0,0.0,-19.56,29.0,32.75
1484.635617,0.08,0.26,-9.77,0.0,0.0,0.0,-19.56,29.0,32.75
1484.659581,0.07,0.22,-9.78,0.0,0.0,0.0,-18.87,29.0,32.37
1484.679688,0.07,0.24,-9.8,0.0,0.0,0.0,-18.87,29.0,32.37
1484.703689,0.03,0.21,-9.77,0.0,0.0,0.0,-18.87,29.0,32.37
1484.723642,0.01,0.19,-9.74,0.0,0.0,0.0,-19.25,28.56,32.37
1484.747708,0.07,0.16,-9.81,0.0,0.0,0.0,-19.25,28.56,32.37
1484.767645,0.05,0.2,-9.73,0.0,0.0,0.0,-19.56,29.0,34.0
1484.791636,0.05,0.23,-9.82,0.0,0.0,0.0,-19.56,29.0,34.0
1484.815585,0.02,0.3,-9.74,0.0,0.0,0.0,-19.56,29.0,34.0
1484.835587,0.01,0.33,-9.77,0.0,0.0,0.0,-20.0,28.56,32.0
1484.859544,0.05,0.17,-9.81,0.0,0.0,0.0,-19.56,28.56,32.75
1484.883589,0.06,0.19,-9.77,0.0,0.0,0.0,-19.56,28.56,32.37
1484.903561,0.03,0.21,-9.83,0.0,0.0,0.0,-19.56,28.56,32.37
1484.92771,0.03,0.25,-9.72,0.0,0.0,0.0,-18.5,29.0,32.75
1484.947692,0.04,0.27,-9.81,0.0,0.0,0.0,-18.5,29.0,32.75
1484.971751,0.03,0.31,-9.76,0.0,0.0,0.0,-18.5,29.0,32.75
1484.995846,0.02,0.33,-9.8,0.0,0.0,0.0,-19.25,28.25,32.0
1485.015836,0.05,0.28,-9.77,0.0,0.0,0.0,-19.25,28.25,32.0
1485.039808,0.05,0.28,-9.81,0.0,0.0,0.0,-18.87,28.56,33.18
1485.063752,0.06,0.22,-9.76,0.0,0.0,0.0,-18.87,28.56,33.18
1485.083841,0.05,0.17,-9.76,0.0,0.0,0.0,-18.87,28.56,33.18
1485.107781,0.06,0.16,-9.74,0.0,0.0,0.0,-19.25,29.0,32.37
1485.127858,0.06,0.23,-9.77,0.0,0.0,0.0,-19.25,29.0,32.37
1485.151851,0.04,0.3,-9.77,0.0,0.0,0.0,-19.56,28.56,33.18
1485.175855,0.02,0.28,-9.8,0.0,0.0,0.0,-19.56,28.56,33.18
1485.195797,0.03,0.28,-9.73,0.0,0.0,0.0,-19.56,28.56,33.18
1485.219801,0.04,0.25,-9.8,0.0,0.0,0.0,-19.56,29.37,32.37
1485.243835,0.06,0.24,-9.76,0.0,0.0,0.0,-19.56,29.37,32.37
1485.263815,0.05,0.22,-9.77,0.0,0.0,0.0,-19.56,29.0,33.18
1485.287725,0.06,0.22,-9.8,0.0,0.0,0.0,-19.56,29.0,33.18
1485.307739,0.06,0.23,-9.77,0.0,0.0,0.0,-19.56,29.0,33.18
1485.331784,0.05,0.2,-9.81,0.0,0.0,0.0,-18.87,29.37,32.75
1485.355713,0.06,0.23,-9.82,0.0,0.0,0.0,-18.87,29.37,32.75
1485.37584,0.07,0.28,-9.81,0.0,0.0,0.0,-18.87,28.56,33.18
1485.399764,0.02,0.2,-9.73,0.0,0.0,0.0,-20.0,29.0,33.56
1485.423793,-0.02,0.15,-9.75,0.0,0.0,0.0,-19.56,28.25,32.37
1485.443773,0.01,0.2,-9.73,0.0,0.0,0.0,-19.56,28.25,32.37
1485.467571,0.11,0.3,-9.77,0.0,0.0,0.0,-19.56,28.25,32.37
1485.499795,0.08,0.31,-9.77,0.0,0.0,0.0,-20.0,29.0,33.18
1485.523798,0.03,0.26,-9.75,0.0,0.0,0.0,-20.0,29.0,33.18
1485.547842,-0.02,0.23,-9.72,0.0,0.0,0.0,-19.25,28.25,33.18
1485.567835,0.0,0.19,-9.71,0.0,0.0,0.0,-19.25,28.25,33.18
1485.591799,0.05,0.22,-9.77,0.0,0.0,0.0,-19.25,28.25,33.18
1485.611834,0.11,0.27,-9.77,0.0,0.0,0.0,-19.56,29.0,32.37
1485.635848,0.08,0.28,-9.78,0.0,0.0,0.0,-19.56,29.0,32.37
1485.659846,0.01,0.25,-9.72,0.0,0.0,0.0,-18.87,28.56,34.0
1485.679853,-0.01,0.21,-9.82,0.0,0.0,0.0,-18.87,28.56,34.0
1485.703813,0.06,0.22,-9.72,0.0,0.0,0.0,-18.87,28.56,34.0
1485.727846,0.1,0.26,-9.85,0.0,0.0,0.0,-19.56,29.0,33.56
1485.747828,0.08,0.26,-9.76,0.0,0.0,0.0,-19.56,29.0,33.56
1485.771752,0.01,0.25,-9.82,0.0,0.0,0.0,-18.5,29.0,32.75
1485.791748,0.0,0.2,-9.72,0.0,0.0,0.0,-18.5,29.0,32.75
1485.81584,0.01,0.23,-9.8,0.0,0.0,0.0,-18.5,29.0,32.75
1485.839807,0.0,0.21,-9.8,0.0,0.0,0.0,-19.25,28.56,33.56
1485.859574,0.01,0.24,-9.77,0.0,0.0,0.0,-19.25,28.56,33.56
1485.883674,0.03,0.24,-9.77,0.0,0.0,0.0,-18.87,29.37,32.75
1485.907652,0.08,0.26,-9.84,0.0,0.0,0.0,-18.87,29.37,32.75
1485.92768,0.07,0.22,-9.78,0.0,0.0,0.0,-19.25,29.0,32.75
1485.9517,0.01,0.22,-9.76,0.0,0.0,0.0,-19.25,29.0,32.75
1485.971715,0.0,0.23,-9.77,0.0,0.0,0.0,-19.25,29.0,32.75
1485.995656,0.03,0.25,-9.78,0.0,0.0,0.0,-18.87,29.37,33.18
1486.019725,0.05,0.24,-9.78,0.0,0.0,0.0,-18.87,29.37,33.18
1486.039736,0.05,0.23,-9.78,0.0,0.0,0.0,-19.25,29.37,33.18
1486.063756,0.0,0.22,-9.73,0.0,0.0,0.0,-19.25,29.37,33.18
1486.087723,0.0,0.24,-9.78,0.0,0.0,0.0,-19.25,29.37,33.18
1486.107713,0.06,0.26,-9.77,0.0,0.0,0.0,-20.0,30.06,33.18
1486.131756,0.14,0.25,-9.88,0.0,0.0,0.0,-20.0,30.06,33.18
1486.151653,0.1,0.23,-9.77,0.0,0.0,0.0,-18.87,28.25,32.75
1486.175764,0.0,0.2,-9.78,0.0,0.0,0.0,-18.87,28.25,32.75
1486.199836,-0.08,0.2,-9.67,0.0,0.0,0.0,-18.87,28.25,32.75
1486.219795,-0.01,0.26,-9.76,0.0,0.0,0.0,-19.56,29.0,32.37
1486.243779,0.11,0.31,-9.77,0.0,0.0,0.0,-19.56,29.0,32.37
1486.267803,0.12,0.25,-9.82,0.0,0.0,0.0,-19.25,28.56,32.0
1486.287601,0.04,0.21,-9.8,0.0,0.0,0.0,-19.25,28.56,32.0
1486.31173,-0.06,0.17,-9.69,0.0,0.0,0.0,-19.25,28.56,32.0
1486.331719,-0.02,0.21,-9.69,0.0,0.0,0.0,-20.0,29.0,32.37
1486.355711,0.07,0.28,-9.81,0.0,0.0,0.0,-20.0,29.0,32.37
1486.379737,-0.04,0.17,-9.72,0.0,0.0,0.0,-18.87,28.56,33.18
1486.399549,0.02,0.25,-9.78,0.0,0.0,0.0,-18.87,28.56,33.18
1486.423656,0.1,0.3,-9.81,0.0,0.0,0.0,-19.25,29.75,32.0
1486.447652,0.1,0.26,-9.83,0.0,0.0,0.0,-19.25,29.75,32.0
1486.467543,0.04,0.22,-9.76,0.0,0.0,0.0,-19.25,29.75,32.0
1486.491557,-0.01,0.2,-9.76,0.0,0.0,0.0,-18.87,28.56,32.37
1486.511642,0.0,0.23,-9.75,0.0,0.0,0.0,-18.87,28.56,32.37
1486.535655,0.08,0.27,-9.77,0.0,0.0,0.0,-18.5,29.0,32.75
1486.559822,0.11,0.28,-9.77,0.0,0.0,0.0,-18.5,29.0,32.75
1486.579797,0.05,0.23,-9.78,0.0,0.0,0.0,-18.5,29.0,32.75
1486.603805,0.0,0.2,-9.77,0.0,0.0,0.0,-18.87,28.56,33.56
1486.627808,-0.01,0.21,-9.75,0.0,0.0,0.0,-18.87,28.56,33.56
1486.647807,0.05,0.26,-9.77,0.0,0.0,0.0,-19.25,29.75,31.56
1486.671794,0.09,0.27,-9.77,0.0,0.0,0.0,-19.25,29.75,31.56
1486.695809,0.06,0.24,-9.8,0.0,0.0,0.0,-19.25,29.75,31.56
1486.715798,0.05,0.22,-9.73,0.0,0.0,0.0,-19.25,29.37,33.56
1486.739799,0.0,0.19,-9.76,0.0,0.0,0.0,-19.25,29.37,33.56
1486.759795,0.05,0.22,-9.75,0.0,0.0,0.0,-19.25,29.37,32.75
1486.783765,0.08,0.28,-9.85,0.0,0.0,0.0,-19.25,29.37,32.75
1486.807779,0.07,0.3,-9.77,0.0,0.0,0.0,-19.25,29.37,32.75
1486.827801,0.06,0.25,-9.77,0.0,0.0,0.0,-19.56,28.56,34.0
1486.851806,0.0,0.19,-9.75,0.0,0.0,0.0,-19.56,28.56,34.0
1486.875796,0.02,0.21,-9.76,0.0,0.0,0.0,-18.87,29.0,34.0
1486.895738,0.09,0.25,-9.8,0.0,0.0,0.0,-18.87,29.0,34.0
1486.919766,0.01,0.19,-9.76,0.0,0.0,0.0,-18.5,29.37,32.0
1486.93981,0.05,0.23,-9.81,0.0,0.0,0.0,-18.5,29.37,32.0
1486.963798,0.07,0.25,-9.81,0.0,0.0,0.0,-18.5,29.37,32.0
1486.987817,0.04,0.25,-9.8,0.0,0.0,0.0,-20.0,28.56,32.75
1487.007807,0.01,0.23,-9.78,0.0,0.0,0.0,-20.0,28.56,32.75
1487.031824,0.01,0.21,-9.74,0.0,0.0,0.0,-18.5,29.0,33.18
1487.055722,0.03,0.23,-9.77,0.0,0.0,0.0,-18.5,29.0,33.18
1487.075855,0.1,0.23,-9.75,0.0,0.0,0.0,-18.5,29.0,33.18
1487.099848,0.08,0.24,-9.8,0.0,0.0,0.0,-18.87,29.0,33.18
1487.119738,0.04,0.24,-9.77,0.0,0.0,0.0,-18.87,29.0,33.18
1487.143798,0.01,0.24,-9.76,0.0,0.0,0.0,-18.5,28.56,32.75
1487.167899,0.03,0.26,-9.77,0.0,0.0,0.0,-18.5,28.56,32.75
1487.18781,0.06,0.25,-9.77,0.0,0.0,0.0,-18.5,28.56,32.75
1487.211833,0.06,0.24,-9.78,0.0,0.0,0.0,-19.56,29.0,33.18
1487.235737,0.05,0.22,-9.77,0.0,0.0,0.0,-19.56,29.0,33.18
1487.255809,0.03,0.24,-9.73,0.0,0.0,0.0,-19.25,29.0,33.56
1487.279787,0.02,0.24,-9.77,0.0,0.0,0.0,-19.25,29.0,33.56
1487.299597,0.05,0.26,-9.76,0.0,0.0,0.0,-19.25,29.0,33.56
1487.323811,0.06,0.25,-9.8,0.0,0.0,0.0,-19.25,28.25,33.56
1487.347761,0.06,0.25,-9.82,0.0,0.0,0.0,-19.25,28.25,33.56
1487.367828,0.03,0.23,-9.77,0.0,0.0,0.0,-18.87,28.25,33.56
1487.391593,0.03,0.21,-9.77,0.0,0.0,0.0,-18.87,28.25,33.56
1487.415586,0.04,0.25,-9.75,0.0,0.0,0.0,-18.87,28.25,33.56
1487.435585,0.03,0.24,-9.81,0.0,0.0,0.0,-19.56,29.37,33.18
1487.459605,0.02,0.25,-9.77,0.0,0.0,0.0,-18.87,28.56,33.56
1487.479589,0.02,0.25,-9.77,0.0,0.0,0.0,-19.25,28.56,34.0
1487.503555,0.05,0.26,-9.82,0.0,0.0,0.0,-19.25,28.56,34.0
1487.527681,0.08,0.25,-9.77,0.0,0.0,0.0,-18.87,28.56,32.37
1487.559693,0.04,0.22,-9.78,0.0,0.0,0.0,-18.87,28.56,32.37
1487.583551,0.02,0.24,-9.78,0.0,0.0,0.0,-19.56,29.0,33.56
1487.603644,0.02,0.23,-9.77,0.0,0.0,0.0,-19.56,29.0,33.56
1487.627652,0.05,0.26,-9.8,0.0,0.0,0.0,-19.56,29.0,33.56
1487.651658,0.07,0.25,-9.78,0.0,0.0,0.0,-19.25,29.0,33.18
1487.671648,0.03,0.25,-9.81,0.0,0.0,0.0,-19.25,29.0,33.18
1487.695686,0.05,0.24,-9.76,0.0,0.0,0.0,-19.56,29.0,32.75
1487.719687,0.03,0.24,-9.78,0.0,0.0,0.0,-19.56,29.0,32.75
1487.739656,0.03,0.27,-9.78,0.0,0.0,0.0,-19.56,29.0,32.75
1487.76368,0.04,0.23,-9.77,0.0,0.0,0.0,-18.5,28.56,32.37
1487.783567,0.04,0.24,-9.77,0.0,0.0,0.0,-18.5,28.56,32.37
1487.807834,0.03,0.23,-9.77,0.0,0.0,0.0,-19.25,29.0,32.37
1487.831833,0.04,0.23,-9.77,0.0,0.0,0.0,-19.25,29.0,32.37
1487.851833,0.03,0.24,-9.77,0.0,0.0,0.0,-19.25,29.0,32.37
1487.875859,0.07,0.25,-9.74,0.0,0.0,0.0,-19.25,28.56,31.56
1487.899841,0.03,0.22,-9.78,0.0,0.0,0.0,-19.25,28.56,31.56
1487.919858,0.04,0.25,-9.77,0.0,0.0,0.0,-19.25,28.56,32.37
1487.943854,0.07,0.24,-9.78,0.0,0.0,0.0,-19.25,28.56,32.37
1487.963836,0.04,0.23,-9.77,0.0,0.0,0.0,-18.06,29.37,33.18
1487.987799,0.04,0.24,-9.78,0.0,0.0,0.0,-18.06,29.37,33.18
1488.011868,0.05,0.22,-9.77,0.0,0.0,0.0,-18.06,29.37,33.18
1488.031838,0.04,0.23,-9.77,0.0,0.0,0.0,-18.5,29.37,33.18
1488.055804,0.03,0.23,-9.77,0.0,0.0,0.0,-18.5,29.37,33.18
1488.07984,0.06,0.25,-9.76,0.0,0.0,0.0,-19.56,28.56,33.18
1488.099838,0.04,0.24,-9.75,0.0,0.0,0.0,-19.56,28.56,33.18
1488.123795,0.05,0.24,-9.8,0.0,0.0,0.0,-19.56,28.56,33.18
1488.143835,0.06,0.25,-9.76,0.0,0.0,0.0,-18.06,28.56,32.37
1488.16776,0.04,0.25,-9.81,0.0,0.0,0.0,-18.06,28.56,32.37
1488.191838,0.03,0.24,-9.77,0.0,0.0,0.0,-19.25,29.37,32.75
1488.211838,0.05,0.24,-9.82,0.0,0.0,0.0,-19.25,29.37,32.75
1488.235801,0.05,0.23,-9.77,0.0,0.0,0.0,-19.25,29.37,32.75
1488.259839,0.03,0.25,-9.77,0.0,0.0,0.0,-19.25,28.56,32.75
1488.279792,0.03,0.24,-9.77,0.0,0.0,0.0,-19.25,28.56,32.75
1488.303878,0.04,0.25,-9.76,0.0,0.0,0.0,-18.87,29.0,33.56
1488.323799,0.05,0.23,-9.77,0.0,0.0,0.0,-18.87,29.0,33.56
1488.347831,0.05,0.24,-9.77,0.0,0.0,0.0,-18.87,29.0,33.56
1488.371795,0.05,0.24,-9.78,0.0,0.0,0.0,-18.87,28.56,32.37
1488.391841,0.04,0.24,-9.77,0.0,0.0,0.0,-18.87,28.56,32.37
1488.415723,0.02,0.25,-9.75,0.0,0.0,0.0,-19.56,29.37,33.18
1488.4398,0.04,0.24,-9.77,0.0,0.0,0.0,-19.56,29.37,33.18
1488.459844,0.05,0.24,-9.77,0.0,0.0,0.0,-19.56,28.56,32.75
1488.483862,0.04,0.25,-9.77,0.0,0.0,0.0,-19.56,28.56,32.75
1488.503663,0.05,0.24,-9.8,0.0,0.0,0.0,-19.56,28.56,32.75
1488.527771,0.05,0.25,-9.77,0.0,0.0,0.0,-17.75,28.56,32.75
1488.551826,0.03,0.24,-9.8,0.0,0.0,0.0,-17.75,28.56,32.75
1488.571805,0.03,0.24,-9.77,0.0,0.0,0.0,-19.25,28.25,31.56
1488.595835,0.02,0.26,-9.8,0.0,0.0,0.0,-19.25,28.25,31.56
1488.619809,0.04,0.24,-9.77,0.0,0.0,0.0,-19.25,28.25,31.56
1488.639718,0.04,0.25,-9.77,0.0,0.0,0.0,-18.87,29.37,33.18
1488.66377,0.06,0.24,-9.76,0.0,0.0,0.0,-18.87,29.37,33.18
1488.687739,0.03,0.24,-9.75,0.0,0.0,0.0,-19.25,29.0,32.75
1488.707794,0.02,0.22,-9.8,0.0,0.0,0.0,-19.25,29.0,32.75
1488.731845,0.06,0.25,-9.77,0.0,0.0,0.0,-19.25,29.0,32.75
1488.751844,0.03,0.26,-9.8,0.0,0.0,0.0,-19.56,28.25,34.0
1488.775854,0.06,0.24,-9.8,0.0,0.0,0.0,-19.56,28.25,34.0
1488.799759,0.04,0.23,-9.77,0.0,0.0,0.0,-19.25,29.37,32.75
1488.819663,0.04,0.24,-9.78,0.0,0.0,0.0,-19.25,29.37,32.75
1488.843841,0.02,0.22,-9.77,0.0,0.0,0.0,-19.25,29.37,32.75
1488.867831,0.06,0.25,-9.77,0.0,0.0,0.0,-20.0,28.25,32.75
1488.887795,0.04,0.24,-9.75,0.0,0.0,0.0,-20.0,28.25,32.75
1488.911806,0.04,0.26,-9.77,0.0,0.0,0.0,-19.25,29.0,33.18
1488.931849,0.04,0.24,-9.77,0.0,0.0,0.0,-19.25,29.0,33.18
1488.955806,0.03,0.22,-9.77,0.0,0.0,0.0,-19.25,29.0,33.18
1488.979836,0.04,0.26,-9.77,0.0,0.0,0.0,-19.56,29.0,32.75
1488.999829,0.05,0.23,-9.75,0.0,0.0,0.0,-19.25,28.25,33.18
1489.023796,0.0,0.27,-9.74,0.0,0.0,0.0,-18.87,28.56,33.18
1489.047845,-0.49,0.42,-9.43,-0.01,0.01,0.0,-18.87,28.56,33.18
1489.067793,-0.02,0.24,-10.08,0.0,0.01,-0.01,-18.87,28.56,33.18
1489.091799,0.92,0.15,-9.99,0.0,0.01,0.0,-18.87,28.56,33.18
1489.115844,0.61,0.0,-10.54,0.0,-0.02,0.0,-18.87,28.56,33.18
1489.135809,-0.28,-0.02,-9.27,0.0,-0.02,0.0,-19.25,29.37,32.75
1489.179677,-0.83,0.26,-9.68,0.0,0.0,0.01,-19.25,29.37,32.75
1489.203747,-0.28,0.68,-9.39,0.0,0.02,0.0,-19.56,29.37,33.18
1489.227835,0.3,0.57,-10.23,-0.01,0.02,0.0,-19.56,29.37,33.18
1489.247648,0.71,0.27,-9.94,0.0,0.0,0.0,-19.56,29.37,33.18
1489.271829,0.2,-0.17,-9.8,0.0,-0.02,0.0,-18.87,28.56,30.75
1489.291659,-0.22,-0.17,-9.35,0.0,-0.01,0.0,-18.87,28.56,30.75
1489.315789,-0.39,0.28,-9.63,0.0,0.0,0.0,-19.25,29.0,33.18
1489.3398,-0.01,0.56,-9.64,0.0,0.01,0.0,-19.25,29.0,33.18
1489.359802,-0.14,-0.14,-9.5,0.0,0.0,0.0,-18.87,28.56,33.18
1489.383807,-0.12,0.27,-9.75,0.0,0.0,0.0,-18.87,28.56,33.18
1489.407788,0.14,0.51,-9.92,0.0,0.0,0.0,-18.87,28.56,33.18
1489.427868,0.24,0.5,-9.89,0.0,0.0,0.0,-19.56,28.56,33.18
1489.451831,0.05,0.18,-9.86,0.0,0.0,0.0,-19.56,28.56,33.18
1489.471789,-0.01,-0.02,-9.63,0.0,0.0,0.0,-19.25,29.37,32.37
1489.495787,-0.08,0.09,-9.75,0.0,0.0,0.0,-19.25,29.37,32.37
1489.5198,0.04,0.32,-9.73,0.0,0.0,0.0,-19.25,29.37,32.37
1489.539814,0.13,0.48,-9.91,0.0,0.0,0.0,-19.56,28.25,33.56
1489.563814,0.1,0.39,-9.78,0.0,0.0,0.0,-19.56,28.25,33.56
1489.587801,0.0,0.11,-9.77,0.0,0.0,0.0,-18.87,28.56,32.37
1489.607806,0.01,0.0,-9.73,0.0,0.0,0.0,-18.87,28.56,32.37
1489.631806,0.05,0.2,-9.8,0.0,0.0,0.0,-18.87,28.56,32.37
1489.651808,0.1,0.43,-9.86,0.0,0.0,0.0,-19.56,28.56,32.75
1489.675932,0.06,0.46,-9.86,0.0,0.0,0.0,-19.56,28.56,32.75
1489.699801,-0.02,0.24,-9.77,0.0,0.0,0.0,-19.25,28.56,33.56
1489.719801,-0.01,0.07,-9.73,0.0,0.0,0.0,-19.25,28.56,33.56
1489.743786,0.04,0.1,-9.8,0.0,0.0,0.0,-19.25,28.56,33.56
1489.7678,0.12,0.22,-9.77,0.0,0.0,0.0,-19.25,29.0,32.37
1489.78774,0.11,0.39,-9.86,0.0,0.0,0.0,-19.25,29.0,32.37
1489.811721,0.02,0.41,-9.76,0.0,0.0,0.0,-18.87,29.0,32.0
1489.831649,-0.04,0.26,-9.81,0.0,0.0,0.0,-18.87,29.0,32.0
1489.855803,0.06,0.09,-9.66,0.0,0.0,0.0,-18.87,29.0,32.0
1489.879797,0.12,0.12,-9.89,0.0,0.0,0.0,-18.5,28.56,33.18
1489.899802,-0.08,0.28,-9.77,0.0,0.0,0.0,-18.5,29.75,33.56
1489.923871,0.08,0.17,-9.69,0.0,0.0,0.0,-20.0,28.56,33.18
1489.947805,0.14,0.16,-9.89,0.0,0.0,0.0,-20.0,28.56,33.18
1489.967831,0.14,0.19,-9.77,0.0,0.0,0.0,-18.87,29.37,32.75
1489.991713,0.01,0.27,-9.81,0.0,0.0,0.0,-18.87,29.37,32.75
1490.011801,-0.05,0.32,-9.66,0.0,0.0,0.0,-18.87,29.37,32.75
1490.035818,-0.01,0.28,-9.78,0.0,0.0,0.0,-20.0,28.56,32.37
1490.059794,0.1,0.25,-9.8,0.0,0.0,0.0,-20.0,28.56,32.37
1490.079754,0.14,0.17,-9.86,0.0,0.0,0.0,-18.87,28.56,32.75
1490.103796,0.08,0.17,-9.76,0.0,0.0,0.0,-18.87,28.56,32.75
1490.127806,0.0,0.22,-9.77,0.0,0.0,0.0,-18.87,28.56,32.75
1490.147813,-0.01,0.28,-9.69,0.0,0.0,0.0,-20.0,29.0,34.0
1490.171803,0.02,0.28,-9.77,0.0,0.0,0.0,-20.0,29.0,34.0
1490.191775,0.11,0.28,-9.78,0.0,0.0,0.0,-19.56,29.0,32.75
1490.215822,0.12,0.2,-9.88,0.0,0.0,0.0,-19.56,29.0,32.75
1490.239802,0.07,0.18,-9.75,0.0,0.0,0.0,-19.56,29.0,32.75
1490.259791,0.01,0.17,-9.77,0.0,0.0,0.0,-19.25,28.56,33.18
1490.283573,0.0,0.25,-9.73,0.0,0.0,0.0,-19.25,28.56,33.18
1490.307671,-0.01,0.28,-9.77,0.0,0.0,0.0,-19.25,29.0,33.56
1490.327774,0.0,0.3,-9.77,0.0,0.0,0.0,-19.25,29.0,33.56
1490.351768,0.06,0.23,-9.77,0.0,0.0,0.0,-19.25,29.0,33.56
1490.375869,0.08,0.22,-9.77,0.0,0.0,0.0,-18.87,29.37,33.56
1490.395836,0.07,0.2,-9.8,0.0,0.0,0.0,-18.87,29.37,33.56
1490.419787,0.02,0.25,-9.76,0.0,0.0,0.0,-19.25,29.0,33.18
1490.439431,0.08,0.21,-9.8,0.0,0.0,0.0,-19.25,29.0,32.75
1490.463692,0.08,0.23,-9.76,0.0,0.0,0.0,-19.25,28.25,32.75
1490.487717,0.03,0.25,-9.77,0.0,0.0,0.0,-19.25,28.25,32.75
1490.507683,0.01,0.28,-9.77,0.0,0.0,0.0,-19.25,28.25,32.75
1490.53175,0.03,0.26,-9.77,0.0,0.0,0.0,-18.5,29.0,33.56
1490.555716,0.07,0.24,-9.77,0.0,0.0,0.0,-18.5,29.0,33.56
1490.575766,0.04,0.23,-9.8,0.0,0.0,0.0,-19.25,29.0,32.75
1490.59976,0.05,0.24,-9.76,0.0,0.0,0.0,-19.25,29.0,32.75
1490.619725,0.03,0.26,-9.77,0.0,0.0,0.0,-19.25,29.0,32.75
1490.643757,0.01,0.24,-9.77,0.0,0.0,0.0,-19.25,28.25,32.75
1490.66768,0.03,0.23,-9.76,0.0,0.0,0.0,-19.25,28.25,32.75
1490.687645,0.02,0.21,-9.77,0.0,0.0,0.0,-19.25,28.56,34.75
1490.711752,0.07,0.24,-9.81,0.0,0.0,0.0,-19.25,28.56,34.75
1490.735713,0.05,0.25,-9.77,0.0,0.0,0.0,-19.25,28.56,34.75
1490.755712,0.03,0.25,-9.77,0.0,0.0,0.0,-19.56,28.56,33.18
1490.779775,0.01,0.25,-9.77,0.0,0.0,0.0,-19.56,28.56,33.18
1490.799568,0.04,0.21,-9.77,0.0,0.0,0.0,-19.25,29.0,32.37
1490.823544,0.07,0.23,-9.78,0.0,0.0,0.0,-19.25,29.0,32.37
1490.84771,0.06,0.23,-9.81,0.0,0.0,0.0,-19.25,29.0,32.37
1490.871606,0.03,0.27,-9.77,0.0,0.0,0.0,-18.87,29.0,32.75
1490.891443,0.01,0.28,-9.8,0.0,0.0,0.0,-18.87,29.0,32.75
1490.915535,0.03,0.25,-9.76,0.0,0.0,0.0,-18.5,28.56,33.56
1490.935486,0.04,0.24,-9.77,0.0,0.0,0.0,-18.5,28.56,33.56
1490.959594,0.07,0.23,-9.78,0.0,0.0,0.0,-18.5,28.56,33.56
1490.979597,0.01,0.26,-9.77,0.0,0.0,0.0,-19.25,29.75,32.0
1491.003561,0.04,0.25,-9.77,0.0,0.0,0.0,-19.25,29.75,32.0
1491.027588,0.08,0.24,-9.76,0.0,0.0,0.0,-19.25,29.0,32.0
1491.047585,0.03,0.19,-9.77,0.0,0.0,0.0,-19.25,29.0,32.0
1491.071547,0.05,0.2,-9.75,0.0,0.0,0.0,-19.25,29.37,32.37
1491.095703,0.04,0.25,-9.8,0.0,0.0,0.0,-19.25,29.37,32.37
1491.115693,0.04,0.26,-9.77,0.0,0.0,0.0,-19.25,29.37,32.37
1491.139651,0.06,0.27,-9.82,0.0,0.0,0.0,-18.87,29.37,32.37
1491.159689,0.01,0.22,-9.72,0.0,0.0,0.0,-18.87,29.37,32.37
1491.183693,0.0,0.21,-9.77,0.0,0.0,0.0,-19.56,28.56,33.18
1491.207694,0.02,0.23,-9.77,0.0,0.0,0.0,-19.56,28.56,33.18
1491.227699,0.06,0.26,-9.77,0.0,0.0,0.0,-19.56,28.56,33.18
1491.251647,0.1,0.24,-9.8,0.0,0.0,0.0,-18.87,29.37,32.75
1491.275693,0.07,0.22,-9.81,0.0,0.0,0.0,-18.87,29.37,32.75
1491.295582,0.0,0.19,-9.72,0.0,0.0,0.0,-20.0,28.25,32.75
1491.319479,-0.02,0.24,-9.76,0.0,0.0,0.0,-20.0,28.25,32.75
1491.343745,0.05,0.28,-9.76,0.0,0.0,0.0,-20.0,28.25,32.75
1491.363663,0.09,0.26,-9.78,0.0,0.0,0.0,-20.0,29.0,32.37
1491.387664,0.06,0.23,-9.81,0.0,0.0,0.0,-20.0,29.0,32.37
1491.407737,0.05,0.23,-9.76,0.0,0.0,0.0,-19.25,29.37,32.75
1491.443584,0.01,0.22,-9.77,0.0,0.0,0.0,-19.25,29.37,32.75
1491.463834,0.02,0.26,-9.74,0.0,0.0,0.0,-19.25,29.37,32.75
1491.487799,0.03,0.27,-9.78,0.0,0.0,0.0,-19.56,29.0,32.37
1491.511841,0.06,0.25,-9.77,0.0,0.0,0.0,-19.56,29.0,32.37
1491.531867,0.04,0.24,-9.78,0.0,0.0,0.0,-19.25,28.56,32.75
1491.555809,0.04,0.22,-9.76,0.0,0.0,0.0,-18.87,27.87,32.0
1491.579835,0.04,0.27,-9.8,0.0,0.0,0.0,-18.87,27.87,32.0
1491.599836,0.03,0.26,-9.75,0.0,0.0,0.0,-18.87,27.87,32.0
1491.623814,0.06,0.24,-9.82,0.0,0.0,0.0,-19.25,29.0,32.0
1491.64385,0.08,0.24,-9.78,0.0,0.0,0.0,-19.25,29.0,32.0
1491.667848,0.03,0.23,-9.78,0.0,0.0,0.0,-18.87,29.0,33.18
1491.691831,0.02,0.24,-9.74,0.0,0.0,0.0,-18.87,29.0,33.18
1491.711846,0.0,0.26,-9.77,0.0,0.0,0.0,-18.87,29.0,33.18
1491.7358,0.06,0.26,-9.77,0.0,0.0,0.0,-19.56,29.37,32.37
1491.75983,0.06,0.26,-9.81,0.0,0.0,0.0,-19.56,29.37,32.37
1491.779778,0.07,0.24,-9.76,0.0,0.0,0.0,-18.87,28.25,33.18
1491.803806,0.05,0.21,-9.78,0.0,0.0,0.0,-18.87,28.25,33.18
1491.823796,0.03,0.22,-9.74,0.0,0.0,0.0,-18.87,28.25,33.18
1491.859764,0.06,0.24,-9.77,0.0,0.0,0.0,-19.25,28.56,33.56
1491.883832,0.06,0.26,-9.77,0.0,0.0,0.0,-19.25,28.56,33.56
1491.903802,0.06,0.27,-9.78,0.0,0.0,0.0,-18.87,29.0,32.75
1491.927857,0.05,0.25,-9.77,0.0,0.0,0.0,-18.87,29.0,32.75
1491.951499,0.01,0.22,-9.76,0.0,0.0,0.0,-18.87,29.0,32.75
1491.971704,0.04,0.25,-9.75,0.0,0.0,0.0,-20.0,29.0,31.18
1491.995427,0.05,0.24,-9.78,0.0,0.0,0.0,-20.0,29.0,31.18
1492.015603,0.04,0.22,-9.76,0.0,0.0,0.0,-19.25,29.75,32.75
1492.039613,0.07,0.24,-9.81,0.0,0.0,0.0,-19.25,29.75,32.75
1492.059666,0.04,0.25,-9.75,0.0,0.0,0.0,-18.87,29.37,33.56
1492.083679,0.04,0.25,-9.82,0.0,0.0,0.0,-18.87,29.37,33.56
1492.107663,0.06,0.24,-9.77,0.0,0.0,0.0,-18.87,29.37,33.56
1492.127669,0.04,0.24,-9.77,0.0,0.0,0.0,-19.56,29.37,33.18
1492.151678,0.02,0.23,-9.76,0.0,0.0,0.0,-19.56,29.37,33.18
1492.175763,0.04,0.23,-9.76,0.0,0.0,0.0,-18.87,28.56,33.56
1492.195762,0.05,0.26,-9.78,0.0,0.0,0.0,-18.87,28.56,33.56
1492.219736,0.04,0.24,-9.77,0.0,0.0,0.0,-18.87,28.56,33.56
1492.243778,0.02,0.26,-9.77,0.0,0.0,0.0,-19.25,28.56,32.37
1492.263738,0.05,0.2,-9.74,0.0,0.0,0.0,-19.25,28.56,32.37
1492.287713,0.04,0.23,-9.81,0.0,0.0,0.0,-18.5,29.0,32.37
1492.307722,0.03,0.26,-9.76,0.0,0.0,0.0,-18.5,29.0,32.37
1492.331628,0.05,0.25,-9.77,0.0,0.0,0.0,-18.5,29.0,32.37
1492.35564,0.04,0.24,-9.74,0.0,0.0,0.0,-19.25,28.56,32.37
1492.375667,0.04,0.23,-9.77,0.0,0.0,0.0,-19.25,28.56,32.37
1492.399612,0.04,0.22,-9.76,0.0,0.0,0.0,-18.87,29.37,33.18
1492.423716,0.06,0.25,-9.78,0.0,0.0,0.0,-18.87,29.37,33.18
1492.443746,0.04,0.24,-9.77,0.0,0.0,0.0,-18.87,29.37,33.18
1492.467722,0.07,0.26,-9.77,0.0,0.0,0.0,-20.0,28.25,33.18
1492.487707,0.06,0.24,-9.77,0.0,0.0,0.0,-20.0,28.25,33.18
1492.511603,0.04,0.24,-9.74,0.0,0.0,0.0,-18.87,29.75,32.75
1492.535568,0.04,0.23,-9.8,0.0,0.0,0.0,-18.87,29.75,32.75
1492.555689,0.05,0.26,-9.77,0.0,0.0,0.0,-18.87,29.75,32.75
1492.579782,0.04,0.22,-9.81,0.0,0.0,0.0,-19.56,28.56,32.37
1492.603786,0.02,0.22,-9.78,0.0,0.0,0.0,-19.56,29.0,33.18
1492.623829,0.07,0.24,-9.77,0.0,0.0,0.0,-19.56,29.0,32.75
1492.647914,0.05,0.24,-9.83,0.0,0.0,0.0,-19.56,29.0,32.75
1492.667732,0.03,0.27,-9.76,0.0,0.0,0.0,-19.56,29.0,31.56
1492.691896,0.02,0.25,-9.78,0.0,0.0,0.0,-19.56,29.0,31.56
1492.715863,0.04,0.24,-9.77,0.0,0.0,0.0,-19.56,29.0,31.56
