t,raw_acceleration_x,raw_acceleration_y,raw_acceleration_z,rotation_speed_x,rotation_speed_y,rotation_speed_z,magnetic_field_x,magnetic_field_y,magnetic_field_z
58.815941,-0.19,0.1,-9.76,0.0,0.0,0.0,20.0,24.75,-29.25
58.839849,-0.2,0.11,-9.77,0.0,0.0,0.0,20.0,24.75,-29.25
58.859847,-0.17,0.13,-9.77,0.0,0.0,0.0,20.0,24.75,-29.25
58.883884,-0.15,0.1,-9.77,0.0,0.0,0.0,20.75,24.37,-28.06
58.903889,-0.17,0.08,-9.77,-0.01,0.0,0.0,20.75,24.37,-28.06
58.927845,-0.2,0.09,-9.8,-0.01,0.0,0.0,20.37,24.75,-28.87
58.95172,-0.17,0.16,-9.77,-0.01,0.0,0.0,20.37,24.75,-28.87
58.971892,-0.18,0.17,-9.77,-0.01,0.0,0.0,20.37,24.75,-28.87
58.995944,-0.15,0.14,-9.77,-0.01,0.0,0.0,20.75,24.0,-29.75
59.019994,-0.17,0.15,-9.76,0.0,0.0,0.0,20.75,24.0,-29.75
59.039924,-0.18,0.13,-9.8,0.0,-0.01,0.0,20.75,24.37,-28.56
59.06397,-0.14,0.12,-9.77,0.01,0.0,-0.03,20.75,24.37,-28.56
59.083987,-0.17,0.07,-9.85,0.02,0.0,0.0,20.37,25.18,-30.06
59.107934,-0.25,0.06,-9.8,0.1,0.01,0.0,20.37,25.18,-30.06
59.131983,-0.2,0.09,-9.82,-0.01,0.0,0.0,20.37,25.18,-30.06
59.151979,-0.17,0.08,-9.73,0.0,0.0,0.0,20.87,23.68,-29.18
59.187938,-0.16,0.11,-9.76,0.0,0.0,0.0,20.87,23.68,-29.18
59.207876,-0.13,0.06,-9.76,-0.01,0.0,0.0,20.5,24.0,-28.75
59.231947,-0.21,0.04,-9.88,0.0,0.0,0.0,20.5,24.0,-28.75
59.255945,-0.6,0.17,-9.78,0.02,0.0,0.27,20.5,24.0,-28.75
59.275906,-0.37,0.15,-9.74,0.03,0.01,0.38,21.25,24.37,-29.18
59.300071,-0.15,0.05,-9.8,0.04,0.01,0.23,21.25,24.37,-29.18
59.320022,-0.3,0.08,-9.75,0.05,0.02,0.11,20.56,24.5,-28.37
59.343919,-0.21,0.08,-9.77,0.05,0.01,0.0,20.56,24.5,-28.37
59.367948,-0.3,0.08,-9.67,0.0,0.0,0.0,20.56,24.5,-28.37
59.387933,-0.25,0.0,-9.81,-0.02,-0.01,0.0,21.0,23.75,-28.37
59.411954,-0.14,-0.08,-9.86,-0.02,-0.01,0.0,21.0,23.75,-28.37
59.435859,0.07,-0.08,-9.64,0.0,-0.01,0.05,21.68,23.75,-29.56
59.455941,-0.44,0.01,-9.86,-0.1,-0.05,0.26,21.68,23.75,-29.56
59.479948,-0.2,0.03,-9.81,-0.04,-0.04,0.05,20.56,23.75,-28.37
59.503935,-0.21,0.14,-9.81,0.01,-0.01,-0.07,20.56,23.75,-28.37
59.523948,-0.14,0.06,-9.82,0.0,-0.01,-0.02,20.56,23.75,-28.37
59.547899,0.5,-0.6,-9.71,0.0,-0.03,0.08,22.06,23.75,-29.18
59.567956,-0.63,0.31,-10.39,-0.13,-0.1,0.43,22.06,23.75,-29.18
59.591849,-0.39,2.29,-11.01,0.09,-0.7,-0.18,20.68,23.87,-30.25
59.615974,-0.2,1.86,-10.3,0.11,-0.18,0.0,20.68,23.87,-30.25
59.635938,-0.01,3.07,-10.4,0.1,-0.17,0.02,20.68,23.87,-30.25
59.65986,0.6,3.98,-10.1,0.07,-0.12,-0.14,20.25,23.5,-27.06
59.683929,0.45,3.25,-9.65,0.01,-0.04,-0.36,20.25,23.5,-27.06
59.703921,0.5,3.63,-9.8,-0.08,0.03,-0.58,20.06,28.0,-19.56
59.727853,0.18,3.27,-9.83,-0.24,0.04,-0.66,20.06,28.0,-19.56
59.747852,0.85,3.29,-9.25,-0.31,0.04,-0.77,20.06,28.0,-19.56
59.771842,0.57,3.14,-9.21,-0.44,0.14,-0.72,19.56,36.18,-4.87
59.795845,0.12,2.45,-9.31,-0.4,0.08,-0.89,19.56,36.18,-4.87
59.815843,0.24,1.5,-8.91,-0.38,0.06,-1.04,16.56,39.06,11.68
59.839889,-0.18,0.94,-9.1,-0.32,0.1,-1.01,16.56,39.06,11.68
59.863888,-0.3,0.33,-9.22,-0.19,0.07,-1.02,16.56,39.06,11.68
59.883715,-0.8,0.1,-9.07,-0.1,0.03,-0.93,14.75,38.37,26.18
59.907948,-1.72,-0.14,-9.48,0.0,0.02,-0.9,14.75,38.37,26.18
59.927933,-1.72,0.24,-9.86,-0.02,0.12,-0.58,11.87,36.5,31.06
59.95181,-1.5,0.35,-9.94,-0.02,0.22,-0.5,11.87,36.5,31.06
59.975957,-0.32,0.05,-9.67,0.0,0.42,-0.15,10.68,32.87,37.56
59.995929,0.46,0.78,-10.15,0.09,0.35,-0.61,10.68,32.87,37.56
60.019941,0.17,-0.63,-10.53,0.15,0.17,-1.06,10.68,32.87,37.56
60.043933,-0.07,-2.24,-10.55,0.11,-0.09,-1.16,9.68,32.0,39.56
60.063949,-0.11,-3.22,-9.96,0.19,-0.23,-1.26,9.68,32.0,39.56
60.087952,0.13,-2.8,-9.76,0.47,-0.11,-1.51,7.25,31.68,40.0
60.111956,1.46,-0.92,-10.1,0.74,0.33,-1.79,7.25,31.68,40.0
60.131962,2.06,-1.04,-9.11,0.49,0.0,-1.36,7.25,31.68,40.0
60.15597,1.58,-1.94,-9.33,0.26,0.03,-0.84,5.5,33.06,39.68
60.175942,0.71,-2.48,-13.08,0.3,-1.45,-0.76,5.5,33.06,39.68
60.211934,0.56,0.02,-10.64,-0.02,-0.02,0.06,4.68,34.87,39.56
60.231993,-0.08,-2.72,-9.58,-0.02,0.01,0.22,4.68,34.87,39.56
60.255996,0.25,-2.35,-10.02,-0.03,-0.04,0.16,4.68,34.87,39.56
60.279952,1.33,-2.13,-10.03,-0.07,-0.03,0.18,4.0,35.18,39.18
60.299984,0.95,-0.56,-10.02,-0.11,-0.07,0.2,4.0,35.18,39.18
60.323938,0.67,0.03,-9.75,-0.18,-0.02,0.26,4.25,34.68,38.25
60.347904,-0.21,0.17,-10.02,0.03,0.0,-0.23,4.25,34.68,38.25
60.367993,-0.44,0.13,-10.02,-0.13,0.02,0.38,4.25,34.68,38.25
60.391938,-0.83,0.18,-10.91,0.0,0.3,-0.45,5.0,34.37,37.87
60.411958,0.36,0.13,-8.67,0.57,-0.35,-1.01,5.0,34.37,37.87
60.436,-0.07,-0.03,-9.86,0.0,0.0,0.0,3.75,35.06,39.75
60.459941,-0.13,0.0,-9.68,0.0,0.0,0.0,3.75,35.06,39.75
60.479993,-0.19,0.05,-9.8,0.0,0.0,0.0,4.18,35.06,38.18
60.503964,-0.15,0.04,-9.69,0.0,0.0,0.0,4.18,35.06,38.18
60.527941,-0.09,0.04,-9.82,0.0,0.0,0.0,4.18,35.06,38.18
60.54794,-0.05,-0.03,-9.77,0.0,0.0,0.0,4.87,35.87,38.18
60.571992,-0.08,0.0,-9.83,0.0,0.0,0.0,4.87,35.87,38.18
60.595986,-0.16,0.04,-9.76,0.0,0.0,0.0,4.18,35.5,38.56
60.615939,-0.17,0.05,-9.76,0.0,0.0,0.0,4.18,35.5,38.56
60.661459,-0.14,0.03,-9.75,0.0,0.0,0.0,4.18,35.5,38.56
60.68385,-0.08,0.0,-9.82,0.0,0.0,0.0,4.5,35.06,38.56
60.707716,-0.08,0.01,-9.84,0.0,0.0,0.0,4.5,35.06,38.56
60.727845,-0.1,0.01,-9.74,0.0,0.0,0.0,4.5,35.06,38.56
60.75189,-0.14,0.07,-9.77,0.0,0.0,0.0,4.5,35.06,38.56
60.775919,-0.14,0.04,-9.73,0.0,0.0,0.0,4.5,35.06,38.56
60.795913,-0.13,0.06,-9.75,0.0,0.0,0.0,3.75,34.68,37.75
60.819958,-0.14,0.08,-9.78,0.0,0.0,0.0,3.75,34.68,37.75
60.83986,-0.11,0.04,-9.77,0.0,0.0,0.0,3.75,35.87,38.18
60.863877,-0.08,-0.03,-9.82,0.0,0.0,0.0,3.75,35.87,38.18
60.88798,-0.1,0.0,-9.77,0.0,0.0,0.0,3.0,35.06,38.18
60.90794,-0.13,0.04,-9.77,0.0,0.0,0.0,3.0,35.06,38.18
60.931983,-0.14,0.06,-9.72,0.0,0.0,0.0,3.0,35.06,38.18
60.956649,-0.13,0.04,-9.75,0.0,0.0,0.0,3.75,35.87,38.18
60.975874,-0.1,0.0,-9.8,0.0,0.0,0.0,3.75,35.87,38.18
60.999979,-0.08,-0.02,-9.77,0.0,0.0,0.0,4.18,35.06,39.0
61.019985,-0.13,0.03,-9.78,0.0,0.0,0.0,4.18,35.06,39.0
61.043944,-0.14,0.04,-9.72,0.0,0.0,0.0,4.18,35.06,39.0
61.067995,-0.14,0.04,-9.77,0.0,0.0,0.0,3.37,35.06,38.56
61.087992,-0.11,0.0,-9.77,0.0,0.0,0.0,3.37,35.06,38.56
61.11194,-0.08,0.0,-9.84,0.0,0.0,0.0,4.18,34.68,38.56
61.135982,-0.1,0.0,-9.8,0.0,0.0,0.0,4.18,34.68,38.56
61.155987,-0.1,0.02,-9.77,0.0,0.0,0.0,4.18,34.68,38.56
61.179985,-0.16,0.05,-9.73,0.0,0.0,0.0,4.18,35.06,39.75
61.199974,-0.12,0.04,-9.78,0.0,0.0,0.0,4.18,35.06,39.75
61.223944,-0.09,0.0,-9.83,0.0,0.0,0.0,3.0,34.37,37.75
61.247979,-0.1,0.0,-9.8,0.0,0.0,0.0,3.0,34.37,37.75
61.267948,-0.1,0.01,-9.77,0.0,0.0,0.0,3.0,34.37,37.75
61.291939,-0.11,0.07,-9.75,0.0,0.0,0.0,4.18,34.68,38.56
61.315985,-0.13,0.05,-9.77,0.0,0.0,0.0,4.18,34.68,38.56
61.335884,-0.14,0.01,-9.77,0.0,0.0,0.0,4.5,34.68,37.75
61.35986,-0.14,0.02,-9.72,0.0,0.0,0.0,4.5,34.68,37.75
61.379913,-0.09,0.06,-9.89,0.0,0.0,0.0,3.75,35.06,37.75
61.40399,-0.06,0.0,-9.75,0.0,0.0,0.0,3.75,35.06,37.75
61.427892,-0.1,0.0,-9.86,0.0,0.0,0.0,3.75,35.06,37.75
61.44796,-0.17,0.02,-9.76,0.0,0.0,0.0,3.37,35.06,37.37
61.471956,-0.19,0.02,-9.8,0.0,0.0,0.0,3.37,35.06,37.37
61.49595,-0.11,0.03,-9.76,0.0,0.0,0.0,4.18,35.06,38.18
61.515952,-0.08,0.01,-9.81,0.0,0.0,0.0,4.18,35.06,38.18
61.539942,-0.03,-0.01,-9.81,0.0,0.0,0.0,4.18,35.06,38.18
61.56395,-0.09,0.03,-9.76,0.0,0.0,0.0,3.37,35.06,37.37
61.583956,-0.17,0.03,-9.78,0.0,0.0,0.0,3.37,35.06,37.37
61.607946,-0.17,0.01,-9.72,0.0,0.0,0.0,3.37,35.06,39.0
61.627928,-0.12,0.01,-9.83,0.0,0.0,0.0,3.37,35.06,39.0
61.651946,-0.05,-0.01,-9.77,0.0,0.0,0.0,3.37,35.06,39.0
61.675936,-0.06,0.01,-9.77,0.0,0.0,0.0,4.18,35.06,37.75
61.695927,-0.12,0.05,-9.75,0.0,0.0,0.0,4.18,35.06,37.75
61.719939,-0.18,0.06,-9.74,0.0,0.0,0.0,3.75,35.06,38.18
61.743944,-0.14,-0.01,-9.77,0.0,0.0,0.0,3.75,35.06,38.18
61.763953,-0.1,-0.02,-9.8,0.0,0.0,0.0,3.75,35.06,38.18
61.787879,-0.07,0.01,-9.8,0.0,0.0,0.0,3.75,35.06,38.18
61.807939,-0.09,0.02,-9.8,0.0,0.0,0.0,3.75,35.06,38.18
61.83195,-0.14,0.09,-9.71,0.0,0.0,0.0,3.75,36.18,38.18
61.855857,-0.15,0.01,-9.8,0.0,0.0,0.0,3.75,36.18,38.18
61.875848,-0.11,0.07,-9.75,0.0,0.0,0.0,3.75,35.06,37.75
61.899881,-0.13,0.08,-9.73,0.0,0.0,0.0,3.75,35.06,37.75
61.923881,-0.14,0.0,-9.78,0.0,0.0,0.0,3.75,35.06,37.75
61.947981,-0.11,0.0,-9.77,0.0,0.0,0.0,4.18,34.68,38.56
61.968003,-0.08,0.0,-9.81,0.0,0.0,0.0,4.18,34.68,38.56
61.987992,-0.09,0.05,-9.77,0.0,0.0,0.0,3.75,35.5,38.56
62.011942,-0.11,0.07,-9.75,0.0,0.0,0.0,3.75,35.5,38.56
62.03598,-0.15,0.03,-9.77,0.0,0.0,0.0,3.75,35.5,38.56
62.055986,-0.13,0.0,-9.77,0.0,0.0,0.0,3.0,35.5,38.56
62.079944,-0.11,-0.01,-9.83,0.0,0.0,0.0,3.0,35.5,38.56
62.10399,-0.08,0.0,-9.77,0.0,0.0,0.0,3.75,35.06,38.18
62.123947,-0.1,0.06,-9.78,0.0,0.0,0.0,3.75,35.06,38.18
62.148085,-0.12,0.09,-9.75,0.0,0.0,0.0,3.75,35.06,38.18
62.16798,-0.11,0.03,-9.78,0.0,0.0,0.0,4.5,34.37,38.18
62.191954,-0.12,-0.03,-9.78,0.0,0.0,0.0,4.5,34.37,38.18
62.215979,-0.1,-0.01,-9.83,0.0,0.0,0.0,3.37,35.06,38.18
62.235977,-0.11,0.05,-9.77,0.0,0.0,0.0,3.37,35.06,38.18
62.271982,-0.11,0.09,-9.77,0.0,0.0,0.0,3.75,35.06,39.0
62.291949,-0.11,0.06,-9.77,0.0,0.0,0.0,3.75,35.06,39.0
62.315987,-0.11,-0.01,-9.81,0.0,0.0,0.0,3.75,35.06,39.0
62.33987,-0.12,-0.05,-9.81,0.0,0.0,0.0,3.75,34.68,38.18
62.359776,-0.1,0.02,-9.77,0.0,0.0,0.0,3.0,35.5,38.56
62.383291,-0.1,-0.01,-9.81,0.0,0.0,0.0,4.18,35.06,39.0
62.407683,-0.12,-0.01,-9.81,0.0,0.0,0.0,4.18,35.06,39.0
62.427698,-0.12,0.02,-9.78,0.0,0.0,0.0,4.18,34.68,38.18
62.451822,-0.12,0.04,-9.77,0.0,0.0,0.0,4.18,34.68,38.18
62.471754,-0.09,0.05,-9.77,0.0,0.0,0.0,4.18,34.68,38.18
62.495903,-0.09,0.02,-9.78,0.0,0.0,0.0,3.37,35.06,39.0
62.519894,-0.09,-0.01,-9.81,0.0,0.0,0.0,3.37,35.06,39.0
62.539902,-0.12,-0.01,-9.8,0.0,0.0,0.0,3.37,35.06,38.18
62.563905,-0.15,0.02,-9.73,0.0,0.0,0.0,3.37,35.06,38.18
62.587887,-0.12,0.04,-9.76,0.0,0.0,0.0,3.37,35.06,38.18
62.607855,-0.09,0.05,-9.8,0.0,0.0,0.0,3.75,35.06,38.56
62.631901,-0.07,0.0,-9.81,0.0,0.0,0.0,3.75,35.06,38.56
62.651897,-0.12,0.0,-9.77,0.0,0.0,0.0,3.75,34.68,37.75
62.675781,-0.13,0.03,-9.78,0.0,0.0,0.0,3.75,34.68,37.75
62.699889,-0.15,0.04,-9.77,0.0,0.0,0.0,3.75,34.68,37.75
62.719893,-0.11,0.03,-9.77,0.0,0.0,0.0,3.37,35.06,37.75
62.743766,-0.1,0.01,-9.81,0.0,0.0,0.0,3.37,35.06,37.75
62.767886,-0.08,0.03,-9.78,0.0,0.0,0.0,4.18,34.37,38.56
62.787891,-0.11,0.01,-9.82,0.0,0.0,0.0,4.18,34.37,38.56
62.811842,-0.14,0.04,-9.77,0.0,0.0,0.0,4.18,34.37,38.56
62.831937,-0.12,0.03,-9.74,0.0,0.0,0.0,3.37,35.06,38.56
62.855918,-0.1,0.05,-9.77,0.0,0.0,0.0,3.75,34.68,38.18
62.87997,-0.1,0.03,-9.77,0.0,0.0,0.0,3.37,35.5,38.56
62.899915,-0.14,-0.01,-9.77,0.0,0.0,0.0,3.37,35.5,38.56
62.923946,-0.19,-0.09,-9.85,0.0,0.0,0.0,3.75,34.37,37.37
62.947979,-0.16,0.0,-9.77,0.0,0.0,0.0,3.75,34.37,37.37
62.967843,-0.09,0.07,-9.76,0.0,0.0,0.0,3.75,34.37,37.37
62.991942,-0.02,0.13,-9.68,0.0,0.0,0.0,3.75,35.5,37.75
63.015986,-0.08,0.03,-9.78,0.0,0.0,0.0,3.75,35.5,37.75
63.035999,-0.11,-0.05,-9.77,0.0,0.0,0.0,4.18,34.68,37.0
63.059962,-0.18,-0.09,-9.83,0.0,0.0,0.0,4.18,34.68,37.0
63.079922,-0.17,0.02,-9.77,0.0,0.0,0.0,4.18,34.68,37.0
63.103977,-0.09,0.08,-9.74,0.0,0.0,0.0,3.37,35.5,39.0
63.127724,-0.05,0.1,-9.78,0.0,0.0,0.0,3.37,35.5,39.0
63.14797,-0.05,0.01,-9.77,0.0,0.0,0.0,3.75,34.68,38.18
63.171944,-0.12,-0.03,-9.82,0.0,0.0,0.0,3.75,34.68,38.18
63.19595,-0.19,-0.02,-9.75,0.0,0.0,0.0,3.75,34.68,38.18
63.215938,-0.16,0.03,-9.78,0.0,0.0,0.0,4.18,35.5,37.75
63.239952,-0.13,0.05,-9.76,0.0,0.0,0.0,4.18,35.5,37.75
63.259959,-0.08,0.04,-9.78,0.0,0.0,0.0,4.18,34.68,37.0
63.283947,-0.08,0.0,-9.83,0.0,0.0,0.0,4.18,34.68,37.0
63.307943,-0.1,-0.01,-9.77,0.0,0.0,0.0,4.18,34.68,37.0
63.32786,-0.17,0.01,-9.77,0.0,0.0,0.0,3.37,35.06,39.37
63.351801,-0.14,0.06,-9.77,0.0,0.0,0.0,3.37,35.06,39.37
63.375879,-0.09,0.06,-9.75,0.0,0.0,0.0,3.37,34.68,38.18
63.395875,-0.15,0.02,-9.76,0.0,0.0,0.0,3.0,35.06,37.75
63.419671,-0.12,0.04,-9.77,0.0,0.0,0.0,3.75,35.87,38.56
63.439781,-0.07,0.03,-9.78,0.0,0.0,0.0,3.75,35.87,38.56
63.46395,-0.05,0.01,-9.84,0.0,0.0,0.0,3.75,35.87,38.56
63.487852,-0.13,0.0,-9.75,0.0,0.0,0.0,3.37,35.06,38.18
63.50788,-0.2,0.0,-9.77,0.0,0.0,0.0,3.37,35.06,38.18
63.531873,-0.15,0.01,-9.75,0.0,0.0,0.0,4.5,34.68,38.18
63.555933,-0.09,0.02,-9.78,0.0,0.0,0.0,4.5,34.68,38.18
63.575936,-0.07,0.02,-9.76,0.0,0.0,0.0,4.5,34.68,38.18
63.599971,-0.06,0.04,-9.78,0.0,0.0,0.0,4.18,35.06,38.18
63.623958,-0.13,0.0,-9.77,0.0,0.0,0.0,4.18,35.06,38.18
63.643953,-0.18,0.0,-9.75,0.0,0.0,0.0,4.18,34.68,38.18
63.667975,-0.13,0.01,-9.81,0.0,0.0,0.0,4.18,34.68,38.18
63.687995,-0.09,0.02,-9.75,0.0,0.0,0.0,4.18,34.68,38.18
63.711944,-0.06,0.05,-9.77,0.0,0.0,0.0,4.18,35.06,38.56
63.735981,-0.06,0.09,-9.76,0.0,0.0,0.0,4.18,35.06,38.56
63.755986,-0.14,0.02,-9.76,0.0,0.0,0.0,3.75,35.06,38.18
63.779956,-0.17,0.01,-9.77,0.0,0.0,0.0,3.75,35.06,38.18
63.80391,-0.14,-0.01,-9.77,0.0,0.0,0.0,3.75,35.06,38.18
63.823953,-0.1,0.01,-9.78,0.0,0.0,0.0,3.37,35.06,38.18
63.847843,-0.08,0.04,-9.76,0.0,0.0,0.0,3.37,35.06,38.18
63.867902,-0.07,0.07,-9.76,0.0,0.0,0.0,3.37,35.87,39.0
63.89187,-0.11,0.04,-9.8,0.0,0.0,0.0,3.37,35.87,39.0
63.916,-0.15,-0.01,-9.8,0.0,0.0,0.0,3.37,35.87,39.0
63.935975,-0.1,0.06,-9.8,0.0,0.0,0.0,3.75,35.87,38.18
63.959943,-0.13,0.03,-9.74,0.0,0.0,0.0,3.75,35.87,38.18
63.983935,-0.12,0.1,-9.77,0.0,0.0,0.0,3.37,35.06,38.56
64.015978,-0.15,0.2,-9.69,0.0,0.0,0.0,3.37,35.06,38.56
64.03999,-0.1,0.15,-9.69,0.01,0.0,0.0,3.75,35.06,39.37
64.059947,-0.03,-0.38,-9.99,0.01,0.01,0.0,3.75,35.06,39.37
64.083877,-0.06,-0.46,-10.02,0.0,0.0,0.0,3.75,35.06,39.37
64.107963,-0.28,0.0,-9.77,-0.01,-0.01,0.0,3.75,35.06,38.56
64.127943,-0.28,0.36,-9.57,-0.01,-0.01,0.0,3.75,35.06,38.56
64.15198,-0.09,0.43,-9.59,0.0,0.0,0.0,3.37,35.5,38.56
64.172011,0.08,0.1,-9.83,0.01,0.01,0.0,3.37,35.5,38.56
64.195937,0.04,-0.3,-9.94,0.01,0.0,0.0,3.37,35.5,38.56
64.219987,-0.12,-0.23,-9.92,0.0,0.0,0.0,3.75,34.68,37.75
64.239989,-0.34,0.01,-9.73,-0.01,0.0,0.0,3.75,34.68,37.75
64.263944,-0.25,0.24,-9.63,0.0,0.0,0.0,3.37,35.5,38.56
64.287994,-0.05,0.18,-9.74,0.0,0.0,0.0,3.37,35.5,38.56
64.308025,0.11,-0.06,-9.89,0.0,0.0,0.0,3.37,35.5,38.56
64.331927,0.07,-0.12,-9.9,0.0,0.0,0.0,3.75,35.06,38.56
64.351891,-0.21,0.02,-9.76,-0.01,0.0,0.0,3.75,35.06,38.56
64.375948,-0.35,0.12,-9.66,0.0,0.0,0.0,4.18,35.5,37.37
64.399985,0.0,-0.06,-9.86,0.0,0.0,0.0,3.0,35.5,37.75
64.419884,-0.24,0.09,-9.71,0.0,0.0,0.0,3.75,35.06,39.0
64.443936,-0.28,0.12,-9.58,0.0,0.0,0.0,3.75,35.06,39.0
64.467947,-0.16,0.07,-9.84,0.0,0.0,0.0,3.75,35.06,39.0
64.487934,0.02,-0.1,-9.82,0.01,0.0,0.0,4.18,35.06,39.37
64.511954,0.0,-0.07,-9.94,0.0,0.0,0.0,4.18,35.06,39.37
64.531928,-0.15,0.04,-9.66,0.0,0.0,0.0,3.75,35.06,37.75
64.555942,-0.27,0.17,-9.71,0.0,0.0,0.0,3.75,35.06,37.75
64.580012,-0.2,0.08,-9.63,0.0,0.0,0.0,3.75,35.06,37.75
64.599983,-0.09,0.01,-9.89,0.0,0.0,0.0,3.75,34.68,37.75
64.623992,0.03,-0.1,-9.82,0.0,0.0,0.0,3.75,34.68,37.75
64.647981,-0.08,0.03,-9.89,0.0,0.0,0.0,3.75,35.06,38.18
64.667994,-0.2,0.1,-9.61,-0.01,0.0,0.0,3.75,35.06,38.18
64.691866,-0.27,0.12,-9.77,0.0,0.0,0.0,3.75,35.06,38.18
64.711935,-0.17,0.01,-9.72,0.0,0.0,0.0,4.18,34.68,38.56
64.735985,0.0,-0.06,-9.98,0.0,0.0,0.0,4.18,34.68,38.56
64.759943,0.05,-0.04,-9.73,0.0,0.0,0.0,3.75,35.87,38.56
64.779988,-0.1,0.11,-9.86,0.0,0.0,0.0,3.75,35.87,38.56
64.80396,-0.21,0.12,-9.67,0.0,0.0,0.0,3.75,35.87,38.56
64.827929,-0.22,0.04,-9.74,0.0,0.0,0.0,4.18,34.37,37.75
64.84793,-0.13,-0.06,-9.77,0.0,0.0,0.0,4.18,34.37,37.75
64.871999,-0.02,-0.09,-9.85,0.0,0.0,0.0,3.37,34.68,39.0
64.891944,-0.05,0.06,-9.83,0.0,0.0,0.0,3.37,34.68,39.0
64.915979,-0.12,0.14,-9.71,0.0,0.0,0.0,3.37,34.68,39.0
64.939882,-0.05,-0.08,-9.77,0.0,0.0,0.0,4.18,35.87,38.56
64.959942,-0.11,0.1,-9.76,0.0,0.0,0.0,4.18,35.87,38.56
64.983986,-0.14,0.16,-9.63,0.0,0.0,0.0,3.37,35.5,39.0
65.007958,-0.15,0.07,-9.76,0.0,0.0,0.0,3.37,35.5,39.0
65.027851,-0.09,-0.06,-9.86,0.0,0.0,0.0,3.75,35.5,37.75
65.051867,-0.09,-0.11,-9.88,0.0,0.0,0.0,3.75,35.5,37.75
65.075942,-0.13,0.0,-9.76,0.0,0.0,0.0,3.75,35.5,37.75
65.095942,-0.15,0.13,-9.75,0.0,0.0,0.0,3.75,35.5,38.56
65.119935,-0.13,0.13,-9.73,0.0,0.0,0.0,3.75,35.5,38.56
65.139944,-0.09,0.02,-9.77,0.0,0.0,0.0,3.37,34.68,37.37
65.163954,-0.06,-0.11,-9.86,0.0,0.0,0.0,3.37,34.68,37.37
65.187941,-0.07,-0.06,-9.86,0.0,0.0,0.0,3.37,34.68,37.37
65.207925,-0.16,0.05,-9.74,0.0,0.0,0.0,4.18,35.06,37.37
65.231936,-0.18,0.12,-9.76,0.0,0.0,0.0,4.18,35.06,37.37
65.255936,-0.11,0.07,-9.76,0.0,0.0,0.0,3.0,34.68,38.56
65.275945,-0.04,-0.05,-9.85,0.0,0.0,0.0,3.0,34.68,38.56
65.299961,-0.06,-0.07,-9.83,0.0,0.0,0.0,3.0,34.68,38.56
65.319942,-0.15,0.01,-9.75,0.0,0.0,0.0,4.18,35.5,37.75
65.34395,-0.18,0.09,-9.74,0.0,0.0,0.0,4.18,35.5,37.75
65.367939,-0.15,0.07,-9.72,0.0,0.0,0.0,3.37,34.68,38.56
65.387936,-0.1,0.01,-9.81,0.0,0.0,0.0,3.37,34.68,38.56
65.411943,-0.03,-0.07,-9.81,0.0,0.0,0.0,3.37,34.68,38.56
65.436051,-0.05,-0.03,-9.8,0.0,0.0,0.0,4.18,35.06,37.37
65.455983,-0.17,0.08,-9.73,0.0,0.0,0.0,4.18,35.06,37.37
65.479955,-0.06,-0.02,-9.78,0.0,0.0,0.0,3.37,35.5,38.56
65.499936,-0.14,0.05,-9.77,0.0,0.0,0.0,3.37,35.5,38.56
65.523995,-0.15,0.09,-9.76,0.0,0.0,0.0,3.37,34.68,38.56
65.547934,-0.15,0.06,-9.83,0.0,0.0,0.0,3.37,34.68,38.56
65.567945,-0.09,0.0,-9.77,0.0,0.0,0.0,3.37,34.68,38.56
65.591932,-0.06,-0.05,-9.84,0.0,0.0,0.0,4.5,35.06,38.18
65.615981,-0.1,-0.01,-9.81,0.0,0.0,0.0,4.5,35.06,38.18
65.635986,-0.16,0.07,-9.77,0.0,0.0,0.0,4.18,35.06,38.18
65.659945,-0.13,0.09,-9.69,0.0,0.0,0.0,4.18,35.06,38.18
65.679982,-0.13,0.02,-9.77,0.0,0.0,0.0,4.18,35.06,38.18
65.703971,-0.06,-0.03,-9.78,0.0,0.0,0.0,4.5,35.06,38.18
65.727939,-0.07,-0.02,-9.85,0.0,0.0,0.0,4.5,35.06,38.18
65.747994,-0.14,0.04,-9.73,0.0,0.0,0.0,3.37,35.06,37.75
65.771983,-0.15,0.11,-9.75,0.0,0.0,0.0,3.37,35.06,37.75
65.795938,-0.14,0.06,-9.8,0.0,0.0,0.0,3.37,35.06,37.75
65.815957,-0.1,-0.01,-9.78,0.0,0.0,0.0,4.5,35.5,37.37
65.839848,-0.05,-0.02,-9.86,0.0,0.0,0.0,4.5,35.5,37.37
65.863899,-0.11,0.01,-9.74,0.0,0.0,0.0,3.0,34.68,38.18
65.883843,-0.14,0.06,-9.82,0.0,0.0,0.0,3.0,34.68,38.18
65.907842,-0.14,0.05,-9.71,0.0,0.0,0.0,3.0,34.68,38.18
65.927848,-0.13,0.01,-9.77,0.0,0.0,0.0,4.5,34.68,38.18
65.95173,-0.09,-0.02,-9.8,0.0,0.0,0.0,4.5,34.68,38.18
65.975861,-0.07,-0.02,-9.85,0.0,0.0,0.0,3.37,35.06,37.37
65.99595,-0.14,0.04,-9.73,0.0,0.0,0.0,3.37,35.06,37.37
66.019985,-0.11,-0.04,-9.78,0.0,0.0,0.0,4.18,34.37,37.75
66.043929,-0.15,0.01,-9.77,0.0,0.0,0.0,4.18,34.37,37.75
66.063938,-0.14,0.09,-9.75,0.0,0.0,0.0,4.18,34.37,37.75
66.087982,-0.12,0.07,-9.73,0.0,0.0,0.0,4.5,34.68,38.18
66.107948,-0.07,0.04,-9.77,0.0,0.0,0.0,4.5,34.68,38.18
66.131982,-0.1,-0.02,-9.8,0.0,0.0,0.0,4.87,35.06,38.56
66.164006,-0.1,-0.04,-9.77,0.0,0.0,0.0,4.87,35.06,38.56
66.187978,-0.15,0.04,-9.77,0.0,0.0,0.0,4.87,35.06,38.56
66.211941,-0.16,0.06,-9.73,0.0,0.0,0.0,4.87,34.37,37.75
66.231985,-0.1,0.04,-9.75,0.0,0.0,0.0,4.87,34.37,37.75
66.255984,-0.08,-0.02,-9.81,0.0,0.0,0.0,4.18,35.06,38.56
66.279994,-0.08,0.0,-9.8,0.0,0.0,0.0,4.18,35.06,38.56
66.29998,-0.14,0.0,-9.77,0.0,0.0,0.0,4.18,35.06,38.56
66.323928,-0.16,0.07,-9.77,0.0,0.0,0.0,4.18,35.06,37.37
66.343975,-0.13,0.04,-9.74,0.0,0.0,0.0,4.18,35.06,37.37
66.367848,-0.07,0.03,-9.78,0.0,0.0,0.0,3.37,34.37,38.18
66.391934,-0.08,0.0,-9.84,0.0,0.0,0.0,3.37,34.37,38.18
66.411808,-0.12,0.0,-9.78,0.0,0.0,0.0,3.37,34.37,38.18
66.435982,-0.15,0.04,-9.76,0.0,0.0,0.0,4.18,35.06,38.18
66.45994,-0.1,0.0,-9.77,0.0,0.0,0.0,3.75,33.56,37.75
66.479931,-0.12,0.02,-9.77,0.0,0.0,0.0,4.18,34.0,38.56
66.503978,-0.16,0.04,-9.77,0.0,0.0,0.0,4.18,34.0,38.56
66.527936,-0.12,0.04,-9.75,0.0,0.0,0.0,4.5,34.37,38.56
66.547998,-0.09,0.01,-9.81,0.0,0.0,0.0,4.5,34.37,38.56
66.571985,-0.07,0.0,-9.77,0.0,0.0,0.0,4.5,34.37,38.56
66.591947,-0.1,0.0,-9.77,0.0,0.0,0.0,5.25,35.5,38.18
66.615979,-0.14,0.05,-9.76,0.0,0.0,0.0,5.25,35.5,38.18
66.639984,-0.11,0.03,-9.74,0.0,0.0,0.0,4.5,35.5,38.56
66.659939,-0.11,0.03,-9.8,0.0,0.0,0.0,4.5,35.5,38.56
66.683981,-0.08,0.01,-9.77,0.0,0.0,0.0,4.5,35.5,38.56
66.707877,-0.11,0.02,-9.81,0.0,0.0,0.0,4.5,35.5,39.0
66.727941,-0.12,0.01,-9.76,0.0,0.0,0.0,4.5,35.5,39.0
66.751933,-0.14,0.04,-9.77,0.0,0.0,0.0,3.75,34.68,39.0
66.771932,-0.11,0.06,-9.77,0.0,0.0,0.0,3.75,34.68,39.0
66.795931,-0.1,0.0,-9.77,0.0,0.0,0.0,3.75,34.68,39.0
66.819946,-0.09,0.0,-9.78,0.0,0.0,0.0,4.5,34.68,38.18
66.839898,-0.11,0.01,-9.76,0.0,0.0,0.0,4.5,34.68,38.18
66.863925,-0.15,0.04,-9.77,0.0,0.0,0.0,3.37,34.68,37.75
66.887897,-0.12,0.02,-9.77,0.0,0.0,0.0,3.37,34.68,37.75
66.907954,-0.12,0.01,-9.77,0.0,0.0,0.0,3.37,34.68,37.75
66.931949,-0.1,-0.01,-9.81,0.0,0.0,0.0,4.18,35.06,37.0
66.951504,-0.09,0.0,-9.8,0.0,0.0,0.0,4.18,35.06,37.0
66.975821,-0.13,0.0,-9.8,0.0,0.0,0.0,3.0,35.87,37.37
66.999806,0.01,0.13,-9.8,0.0,0.0,0.0,4.87,34.37,39.75
67.019811,-0.09,0.0,-9.76,0.0,0.0,0.0,4.87,34.68,38.56
67.043805,-0.19,-0.05,-9.82,0.0,0.0,0.0,4.87,34.68,38.56
67.067824,-0.25,-0.07,-9.77,0.0,0.0,0.0,4.87,34.68,38.56
67.087803,-0.2,0.01,-9.77,0.0,0.0,0.0,4.18,34.68,37.37
67.111818,-0.03,0.1,-9.8,0.0,0.0,0.0,4.18,34.68,37.37
67.131803,0.0,0.1,-9.75,0.0,0.0,0.0,4.5,34.68,38.56
67.155743,-0.07,0.04,-9.8,0.0,0.0,0.0,4.5,34.68,38.56
67.179829,-0.15,0.0,-9.77,0.0,0.0,0.0,3.75,34.37,37.37
67.199833,-0.22,-0.04,-9.78,0.0,0.0,0.0,3.75,34.37,37.37
67.223861,-0.15,0.0,-9.75,0.0,0.0,0.0,3.75,34.37,37.37
67.247919,-0.07,0.05,-9.77,0.0,0.0,0.0,4.5,34.68,39.37
67.267775,-0.04,0.06,-9.81,0.0,0.0,0.0,4.5,34.68,39.37
67.291804,-0.07,0.04,-9.75,0.0,0.0,0.0,4.5,35.06,38.56
67.315855,-0.13,0.0,-9.76,0.0,0.0,0.0,4.5,35.06,38.56
67.335755,-0.18,-0.01,-9.8,0.0,0.0,0.0,4.5,35.06,38.56
67.359728,-0.12,-0.01,-9.77,0.0,0.0,0.0,3.37,34.68,37.37
67.39148,-0.08,0.03,-9.77,0.0,0.0,0.0,3.37,34.68,37.37
67.415662,-0.08,0.05,-9.77,0.0,0.0,0.0,3.75,34.68,38.18
67.435434,-0.12,0.03,-9.76,0.0,0.0,0.0,3.75,34.68,38.18
67.45972,-0.16,0.0,-9.77,0.0,0.0,0.0,3.75,34.68,38.18
67.483793,-0.09,0.06,-9.74,0.0,0.0,0.0,3.75,34.68,38.56
67.503782,-0.14,0.01,-9.77,0.0,0.0,0.0,3.75,34.68,38.56
67.5279,-0.16,0.0,-9.74,0.0,0.0,0.0,3.37,34.68,37.37
67.551868,-0.13,0.0,-9.78,0.0,0.0,0.0,3.37,34.68,37.37
67.571953,-0.09,0.01,-9.76,0.0,0.0,0.0,3.0,35.06,39.0
67.595897,-0.07,0.06,-9.76,0.0,0.0,0.0,3.0,35.06,39.0
67.615935,-0.09,0.06,-9.77,0.0,0.0,0.0,3.0,35.06,39.0
67.639932,-0.12,0.01,-9.77,0.0,0.0,0.0,4.18,34.68,39.0
67.663949,-0.18,-0.01,-9.82,0.0,0.0,0.0,4.18,34.68,39.0
67.683877,-0.18,0.03,-9.61,0.0,0.0,0.0,4.18,35.06,38.56
67.707894,-0.11,0.04,-9.61,0.0,0.0,0.0,4.18,35.06,38.56
67.731882,-0.06,0.04,-9.91,0.0,0.0,0.0,4.18,35.06,38.56
67.751931,-0.04,0.04,-9.78,0.0,0.0,0.0,3.75,34.37,39.0
67.775895,-0.07,0.04,-9.82,0.0,0.0,0.0,3.75,34.37,39.0
67.799937,-0.2,0.01,-9.68,0.0,0.0,0.0,3.75,35.5,38.18
67.819938,-0.25,0.06,-9.72,0.0,0.0,0.0,3.75,35.5,38.18
67.843795,-0.22,0.07,-9.64,0.01,0.0,0.0,3.75,35.5,38.18
67.863834,0.01,0.14,-10.13,0.01,0.0,0.0,4.18,35.06,38.56
67.887839,0.37,0.0,-9.52,0.0,0.0,0.0,4.18,35.06,38.56
67.91179,0.3,-0.11,-10.47,0.0,0.0,0.0,3.75,34.37,39.0
67.931897,-0.08,-0.28,-9.46,-0.02,0.0,0.0,3.75,34.37,39.0
67.955801,-0.73,0.27,-10.0,-0.02,-0.01,0.0,3.75,34.37,39.0
67.979792,-0.72,0.36,-8.99,0.0,0.0,0.0,3.75,34.37,38.18
67.999936,-0.47,-0.12,-9.71,-0.01,0.0,0.0,4.5,34.37,39.0
68.023932,-0.66,-0.14,-9.76,0.0,0.0,0.0,3.75,34.56,39.37
68.043891,-0.25,0.2,-9.73,0.0,0.0,0.0,3.75,34.56,39.37
68.067937,0.0,0.12,-9.82,0.01,0.01,0.0,4.18,34.56,38.56
68.091897,0.21,-0.09,-10.0,0.0,0.0,0.0,4.18,34.56,38.56
68.111897,0.02,0.01,-9.91,0.0,0.0,0.0,4.18,34.56,38.56
68.135929,-0.22,0.11,-9.57,-0.01,-0.01,0.0,4.18,34.56,38.18
68.159894,-0.39,0.42,-9.63,0.0,0.0,0.0,4.18,34.56,38.18
68.179848,-0.39,0.24,-9.53,0.01,0.0,0.0,3.75,34.56,39.37
68.203936,-0.28,-0.23,-9.98,0.02,0.01,0.0,3.75,34.56,39.37
68.223928,-0.1,-0.45,-9.92,0.02,0.01,0.0,3.75,34.56,39.37
68.247931,-0.04,-0.24,-10.01,0.0,0.0,0.0,3.75,35.0,37.37
68.271931,0.12,0.11,-9.61,-0.01,0.0,0.0,3.75,35.0,37.37
68.291901,0.1,0.41,-9.77,0.0,0.0,0.0,4.18,34.56,39.0
68.315921,-0.21,-0.18,-9.92,0.0,0.0,0.0,4.18,34.56,39.0
68.33988,-0.2,-0.41,-10.02,0.0,0.0,0.0,4.18,34.56,39.0
68.359884,0.15,0.08,-9.94,0.0,0.0,0.0,4.18,34.56,37.75
68.383931,0.01,0.32,-9.77,-0.01,-0.01,0.0,4.18,34.56,37.75
68.40393,-0.43,0.24,-9.43,-0.01,0.0,0.0,4.18,34.25,37.75
68.427879,-0.48,0.02,-9.81,0.01,0.0,0.0,4.18,34.25,37.75
68.451948,-0.02,-0.43,-9.86,0.01,0.01,0.0,4.18,34.25,37.75
68.471925,0.16,-0.32,-10.13,0.0,0.0,0.0,4.18,34.56,39.37
68.495885,-0.16,0.04,-9.76,-0.02,-0.01,0.0,4.18,34.56,39.37
68.519942,-0.36,0.17,-9.74,-0.02,-0.01,0.0,3.37,35.37,39.0
68.539893,-0.03,-0.69,-9.85,0.0,0.0,0.0,3.37,34.25,39.0
68.563937,0.01,-0.34,-9.89,-0.03,-0.01,0.0,4.18,34.25,39.0
68.587861,0.0,0.55,-9.31,-0.03,-0.01,0.0,4.18,34.25,39.0
68.607907,0.04,0.49,-9.75,0.0,0.0,0.0,4.18,34.25,39.0
68.631892,0.31,0.05,-9.71,0.0,0.01,0.0,4.5,35.37,37.0
68.651922,0.31,-0.09,-9.73,0.0,0.0,0.0,4.5,35.37,37.0
68.675891,-0.13,0.1,-9.75,-0.01,-0.01,0.0,4.18,35.0,38.56
68.699908,-0.66,0.11,-9.77,-0.01,0.0,0.0,4.18,35.0,38.56
68.719876,-0.59,0.0,-9.61,0.0,0.0,0.0,4.18,35.0,38.56
68.743898,-0.07,-0.06,-9.99,0.01,0.01,0.0,3.75,34.25,37.75
68.767896,0.14,-0.19,-9.96,0.01,0.0,0.0,3.75,34.25,37.75
68.787899,0.14,0.0,-9.94,0.0,0.0,0.0,3.37,34.25,38.18
68.811901,-0.09,0.21,-9.69,-0.01,-0.01,0.0,3.37,34.25,38.18
68.831913,-0.47,0.15,-9.71,0.0,0.0,0.0,3.37,34.25,38.18
68.855794,-0.38,-0.02,-9.69,0.0,0.0,0.0,3.0,35.0,36.68
68.879793,0.02,-0.12,-9.96,0.01,0.0,0.0,3.0,35.0,36.68
68.899801,0.07,-0.08,-9.77,0.0,0.0,0.0,3.37,35.37,39.0
68.923785,-0.01,0.16,-9.8,0.0,0.0,0.0,3.37,35.37,39.0
68.94779,-0.22,0.26,-9.57,-0.01,0.0,0.0,3.37,35.37,39.0
68.967793,-0.33,0.11,-9.73,0.0,0.0,0.0,3.75,35.37,38.18
68.9919,-0.08,-0.12,-9.77,0.0,0.0,0.0,3.75,35.37,38.18
69.011819,0.01,-0.13,-9.94,0.0,0.0,0.0,3.75,35.0,38.18
69.035819,-0.04,-0.04,-9.78,0.0,0.0,0.0,3.75,35.0,38.18
69.059791,-0.14,0.18,-9.75,0.0,-0.01,0.0,3.75,35.0,38.18
69.079826,0.09,0.1,-9.83,0.0,0.0,0.0,3.75,34.25,37.37
69.103885,-0.04,0.25,-9.77,0.0,0.0,0.0,3.75,34.25,37.37
69.12785,-0.28,0.16,-9.61,0.0,0.0,0.0,3.37,34.25,38.18
69.147791,-0.35,-0.11,-9.81,0.0,0.0,0.0,3.37,34.25,38.18
69.171824,-0.19,-0.25,-9.88,0.01,0.0,0.0,3.75,34.56,38.18
69.191808,-0.08,-0.04,-9.93,0.0,0.0,0.0,3.75,34.56,38.18
69.215834,0.0,0.26,-9.69,0.0,0.0,0.0,3.75,34.56,38.18
69.239834,-0.05,0.36,-9.69,0.0,0.0,0.0,4.5,34.56,38.18
69.259796,-0.18,0.01,-9.75,0.01,0.0,0.0,4.5,34.56,38.18
69.283826,-0.27,-0.38,-9.89,0.01,0.01,0.0,3.37,34.25,37.75
69.307791,-0.19,-0.32,-9.86,0.0,0.0,0.0,3.37,34.25,37.75
69.327497,-0.08,0.16,-9.69,0.0,0.0,0.0,3.37,34.25,37.75
69.351749,-0.01,0.37,-9.66,0.0,0.0,0.0,4.18,34.56,38.56
69.375794,0.01,0.18,-9.69,0.0,0.0,0.0,4.18,34.56,38.56
69.395818,-0.04,-0.08,-9.81,0.01,0.0,0.0,3.37,34.56,38.18
69.419774,-0.18,-0.32,-9.89,0.0,0.0,0.0,3.37,34.56,38.18
69.439737,-0.26,-0.2,-9.86,0.0,0.0,0.0,3.37,34.56,38.18
69.463836,-0.2,0.14,-9.69,0.0,0.0,0.0,3.75,35.0,37.75
69.487877,-0.11,0.22,-9.66,0.0,0.0,0.0,3.75,35.0,37.75
69.50774,0.04,0.08,-9.72,0.0,0.0,0.0,3.75,34.56,37.37
69.531749,-0.04,-0.1,-9.83,0.0,0.0,0.0,3.75,34.56,37.37
69.555751,-0.16,-0.11,-9.82,0.0,0.0,0.0,3.75,34.56,37.37
69.575845,-0.22,0.0,-9.76,0.0,0.0,0.0,4.18,35.0,37.75
69.599837,-0.15,0.06,-9.75,0.0,0.0,0.0,4.18,35.0,37.75
69.61988,-0.15,-0.05,-9.77,0.0,0.0,0.0,4.5,34.56,38.56
69.643848,-0.12,0.01,-9.73,0.0,0.0,0.0,4.5,34.56,38.56
69.667873,-0.07,0.05,-9.75,0.0,0.0,0.0,3.75,34.56,37.75
69.687891,-0.06,0.02,-9.77,0.0,0.0,0.0,3.75,34.56,37.75
69.711837,-0.12,-0.04,-9.78,0.0,0.0,0.0,3.75,34.56,37.75
69.735885,-0.16,-0.07,-9.78,0.0,0.0,0.0,3.75,34.56,38.18
69.755879,-0.19,0.0,-9.74,0.0,0.0,0.0,3.75,34.56,38.18
69.779889,-0.15,0.03,-9.75,0.0,0.0,0.0,3.75,34.25,38.18
69.799882,-0.03,0.03,-9.78,0.0,0.0,0.0,3.75,34.25,38.18
69.823785,-0.04,0.03,-9.74,0.0,0.0,0.0,3.75,34.25,38.18
69.847755,-0.1,0.0,-9.75,0.0,0.0,0.0,4.5,35.0,37.75
69.867785,-0.15,0.0,-9.81,0.0,0.0,0.0,4.5,35.0,37.75
69.891853,-0.18,-0.03,-9.75,0.0,0.0,0.0,4.18,35.37,39.37
69.915878,-0.12,-0.01,-9.81,0.0,0.0,0.0,4.18,35.37,39.37
69.935888,-0.07,0.0,-9.77,0.0,0.0,0.0,4.18,35.37,39.37
69.959846,-0.09,0.01,-9.82,0.0,0.0,0.0,3.75,34.56,38.56
69.979878,-0.11,0.03,-9.77,0.0,0.0,0.0,3.75,34.56,38.56
70.00389,-0.16,0.01,-9.75,0.0,0.0,0.0,3.75,34.56,37.37
70.027833,-0.17,0.0,-9.72,0.0,0.0,0.0,3.75,34.56,37.37
70.047917,-0.09,0.03,-9.75,0.0,0.0,0.0,3.75,34.56,37.37
70.071877,-0.07,0.03,-9.77,0.0,0.0,0.0,4.5,35.0,39.0
70.095882,-0.05,0.01,-9.75,0.0,0.0,0.0,4.5,35.0,39.0
70.115831,-0.13,-0.01,-9.8,0.0,0.0,0.0,4.18,35.37,38.56
70.139876,-0.18,-0.01,-9.76,0.0,0.0,0.0,4.18,35.37,38.56
70.159833,-0.07,0.0,-9.77,0.0,0.0,0.0,5.25,34.56,39.0
70.183877,-0.08,0.03,-9.77,0.0,0.0,0.0,5.25,34.56,39.0
70.207835,-0.11,0.05,-9.77,0.0,0.0,0.0,5.25,34.56,39.0
70.227835,-0.14,-0.05,-9.77,0.0,0.0,0.0,4.5,35.0,37.75
70.251842,-0.18,-0.06,-9.81,0.0,0.0,0.0,4.5,35.0,37.75
70.275834,-0.24,-0.01,-9.72,0.0,0.0,0.0,4.5,35.0,37.75
70.295832,-0.23,0.02,-9.75,0.0,0.0,0.0,4.5,35.0,37.75
70.319848,-0.09,0.0,-9.75,0.0,0.0,0.0,4.5,35.0,37.75
70.34384,0.09,-0.05,-9.94,0.0,0.0,0.0,3.75,35.0,38.56
70.36388,0.09,0.01,-9.77,0.0,0.0,0.0,3.75,35.0,38.56
70.387855,-0.12,0.21,-9.72,0.0,0.0,0.0,3.75,34.56,38.56
70.407822,-0.24,0.16,-9.65,0.0,0.0,0.0,3.75,34.56,38.56
70.431835,-0.26,-0.08,-9.8,0.0,0.0,0.0,3.75,34.56,38.56
70.455829,-0.15,-0.19,-9.82,0.0,0.0,0.0,4.18,35.75,39.37
70.47584,-0.03,-0.11,-9.83,0.0,0.0,0.0,4.18,35.75,39.37
70.499852,-0.08,0.15,-9.75,0.0,0.0,0.0,3.37,35.0,38.18
70.523844,-0.09,0.22,-9.67,0.0,0.0,0.0,3.37,35.0,38.18
70.543811,-0.15,0.02,-9.77,0.0,0.0,0.0,3.37,35.0,38.18
70.567858,-0.14,-0.1,-9.78,0.0,0.0,0.0,4.5,33.87,37.37
70.58783,-0.12,-0.13,-9.86,0.0,0.0,0.0,4.5,33.87,37.37
70.611837,-0.12,-0.05,-9.83,0.0,0.0,0.0,3.75,34.56,38.56
70.635834,-0.09,0.08,-9.78,0.0,0.0,0.0,3.75,34.56,38.56
70.655832,-0.07,0.09,-9.73,0.0,0.0,0.0,3.75,34.56,38.56
70.679844,-0.07,0.01,-9.77,0.0,0.0,0.0,4.5,35.37,38.18
70.70383,-0.17,0.07,-9.78,0.0,0.0,0.0,3.75,34.56,38.56
70.723841,-0.1,0.02,-9.74,0.0,0.0,0.0,4.18,35.0,37.37
70.747857,-0.09,0.01,-9.83,0.0,0.0,0.0,4.18,35.0,37.37
70.767847,-0.07,0.02,-9.76,0.0,0.0,0.0,3.75,35.0,38.18
70.791852,-0.1,0.05,-9.83,0.0,0.0,0.0,3.75,35.0,38.18
70.815833,-0.15,0.02,-9.77,0.0,0.0,0.0,3.75,35.0,38.18
70.835876,-0.13,0.02,-9.77,0.0,0.0,0.0,4.18,34.56,38.56
70.859841,-0.07,0.04,-9.77,0.0,0.0,0.0,4.18,34.56,38.56
70.883877,-0.18,0.0,-9.67,0.0,0.0,0.0,3.75,34.25,38.18
70.903996,-0.22,0.03,-9.77,0.0,0.0,0.0,3.75,34.25,38.18
70.927824,-0.15,0.01,-9.67,0.0,0.0,0.0,3.75,34.25,38.18
70.947905,-0.09,0.01,-9.78,0.0,0.0,0.0,4.18,34.56,39.37
70.971881,-0.02,0.03,-9.71,0.0,0.0,0.0,4.18,34.56,39.37
70.995842,-0.06,0.04,-9.77,0.0,0.0,0.0,4.18,35.0,39.75
71.01589,-0.14,0.05,-9.73,0.0,0.0,0.0,4.18,35.0,39.75
71.039805,-0.19,0.01,-9.77,0.0,0.0,0.0,4.18,35.0,39.75
71.063878,-0.16,0.0,-9.74,0.0,0.0,0.0,4.87,34.56,38.18
71.083832,-0.06,0.02,-9.83,0.0,0.0,0.0,4.87,34.56,38.18
71.10784,-0.05,0.03,-9.74,0.0,0.0,0.0,4.5,35.0,37.37
71.131832,-0.1,0.09,-9.77,0.0,0.0,0.0,4.5,35.0,37.37
71.151883,-0.16,0.06,-9.69,0.0,0.0,0.0,4.5,35.0,37.37
71.175846,-0.2,-0.01,-9.78,0.0,0.0,0.0,4.18,35.37,38.18
71.195839,-0.15,-0.04,-9.77,0.0,0.0,0.0,4.18,35.37,38.18
71.219893,-0.07,0.0,-9.8,0.0,0.0,0.0,3.75,34.56,38.18
71.243837,-0.16,-0.03,-9.77,0.0,0.0,0.0,3.75,34.25,38.18
71.263885,-0.11,-0.05,-9.86,0.0,0.0,0.0,4.18,34.25,38.18
71.287887,-0.07,0.01,-9.77,0.0,0.0,0.0,4.18,34.25,38.18
71.311842,-0.09,0.12,-9.78,0.0,0.0,0.0,4.18,34.25,38.18
71.33186,-0.09,0.1,-9.69,0.0,0.0,0.0,5.25,34.56,39.0
71.355884,-0.12,0.01,-9.81,0.0,0.0,0.0,5.25,34.56,39.0
71.375905,-0.11,-0.09,-9.77,0.0,0.0,0.0,3.75,34.56,37.75
71.399886,-0.12,-0.03,-9.83,0.0,0.0,0.0,3.75,34.56,37.75
71.423886,-0.1,0.07,-9.73,0.0,0.0,0.0,3.75,34.56,37.75
71.443765,-0.07,0.12,-9.71,0.0,0.0,0.0,3.75,35.0,37.75
71.467874,-0.08,0.07,-9.8,0.0,0.0,0.0,3.75,35.0,37.75
71.491853,-0.17,-0.03,-9.81,0.0,0.0,0.0,4.87,34.56,37.75
71.511837,-0.37,-0.12,-9.8,0.0,0.0,0.0,4.87,34.56,37.75
71.535895,-0.4,-0.01,-9.71,0.0,0.0,0.0,4.87,34.56,37.75
71.555898,0.02,0.08,-9.83,0.01,0.0,0.0,4.18,35.75,38.18
71.579838,0.2,-0.02,-9.92,0.01,0.0,0.0,4.18,35.75,38.18
71.603886,0.1,-0.06,-9.75,0.0,0.0,0.0,4.18,34.25,37.75
71.623883,-0.1,0.11,-9.8,-0.01,-0.01,0.0,4.18,34.25,37.75
71.64789,-0.39,0.12,-9.57,0.0,0.0,0.0,4.18,34.25,37.75
71.67188,-0.2,0.01,-9.82,0.0,0.0,0.0,3.37,35.37,38.18
71.691837,0.0,-0.04,-9.78,0.0,0.0,0.0,3.37,35.37,38.18
71.71582,0.02,-0.1,-9.92,0.0,0.0,0.0,3.37,35.0,37.0
71.73579,0.0,-0.07,-9.77,0.0,0.0,0.0,3.37,35.0,37.0
71.759755,-0.24,0.16,-9.67,0.0,0.0,0.0,3.37,35.0,37.0
71.783866,0.09,-0.21,-9.97,0.0,0.0,0.0,3.75,34.56,38.18
71.803898,-0.03,-0.03,-9.77,0.0,0.0,0.0,3.75,34.56,38.18
71.827722,-0.28,0.24,-9.58,0.0,0.0,0.0,4.5,34.56,37.0
71.851752,-0.26,0.14,-9.65,0.0,0.0,0.0,4.5,34.56,37.0
71.871747,-0.06,-0.02,-9.84,0.01,0.01,0.0,4.18,34.56,39.0
71.895742,0.01,-0.15,-9.91,0.0,0.0,0.0,4.18,34.56,39.0
71.915642,-0.08,-0.06,-9.75,0.0,0.0,0.0,4.18,34.56,39.0
71.939673,-0.25,0.08,-9.8,0.0,0.0,0.0,3.37,34.56,37.75
71.963764,-0.22,0.0,-9.69,0.0,0.0,0.0,3.37,34.56,37.75
71.983693,-0.1,-0.12,-9.83,0.0,0.0,0.0,4.18,34.25,37.75
72.007743,-0.03,-0.09,-9.82,0.0,0.0,0.0,4.18,34.25,37.75
72.031845,-0.07,0.07,-9.77,0.0,0.0,0.0,4.18,34.25,37.75
72.05187,-0.14,0.15,-9.74,0.0,0.0,0.0,4.18,35.37,37.75
72.075844,-0.14,0.08,-9.72,0.0,0.0,0.0,4.18,35.37,37.75
72.099881,-0.13,-0.05,-9.82,0.0,0.0,0.0,3.75,34.25,39.0
72.119883,-0.13,-0.07,-9.85,0.0,0.0,0.0,3.75,34.25,39.0
72.143844,-0.1,-0.03,-9.77,0.0,0.0,0.0,3.75,34.25,39.0
72.16388,-0.09,0.02,-9.77,0.0,0.0,0.0,4.5,35.75,37.37
72.18788,-0.1,0.05,-9.74,0.0,0.0,0.0,4.5,35.75,37.37
72.211859,-0.1,0.04,-9.77,0.0,0.0,0.0,3.75,34.56,38.56
72.231848,-0.11,-0.06,-9.82,0.0,0.0,0.0,3.75,34.56,38.56
72.255854,-0.14,-0.07,-9.85,0.0,0.0,0.0,3.75,34.56,38.56
72.27985,-0.14,0.0,-9.82,0.0,0.0,0.0,3.37,35.37,37.37
72.299848,-0.1,0.06,-9.71,0.0,0.0,0.0,3.37,35.37,37.37
72.323838,-0.1,-0.03,-9.76,-0.04,-0.06,0.0,4.18,35.0,37.75
72.343773,0.14,0.01,-9.46,-0.11,-0.11,-0.03,4.18,35.0,37.75
72.367585,5.13,0.45,-10.02,-0.12,-0.08,-0.38,3.75,34.25,37.75
72.395505,0.88,2.41,-8.94,-0.09,-0.05,-0.57,3.75,34.25,37.75
72.411638,1.63,1.02,-8.94,0.09,-0.1,-0.98,3.75,34.25,37.75
72.43568,1.28,0.04,-10.29,-0.03,-0.19,-1.0,4.5,35.0,38.56
72.459835,1.83,0.03,-9.9,0.17,-0.36,-0.87,4.5,35.0,38.56
72.479841,1.82,0.56,-11.09,-0.04,-0.34,-0.9,3.0,35.37,38.56
72.503844,1.71,0.94,-8.35,0.18,-0.26,-1.15,3.0,35.37,38.56
72.523878,0.76,0.66,-8.82,0.2,0.07,-1.25,3.0,35.37,38.56
72.547871,-0.99,0.63,-10.56,-0.23,0.27,-1.62,1.87,36.87,39.37
72.571886,-2.52,-0.98,-9.11,0.18,0.16,-1.48,1.87,36.87,39.37
72.591896,-1.13,-0.47,-10.11,0.17,0.11,-0.96,-0.68,38.0,38.56
72.615879,-0.35,0.3,-9.23,0.13,0.07,-0.88,-0.68,38.0,38.56
72.639894,-1.74,-0.54,-9.67,-0.08,0.26,-0.78,-0.68,38.0,38.56
72.659891,-0.46,-0.38,-9.44,-0.22,0.27,-0.65,-2.06,39.87,38.56
72.68394,-1.64,-0.43,-10.24,-0.09,0.11,-0.59,-2.06,39.87,38.56
72.703932,-1.41,-0.91,-9.85,0.01,0.02,-0.64,-3.87,39.75,38.56
72.727891,0.92,-0.42,-9.89,0.02,-0.02,-0.91,-3.87,39.75,38.56
72.751931,0.46,-0.26,-9.61,0.0,-0.01,-0.92,-3.87,39.75,38.56
72.771933,-1.7,-1.53,-10.07,0.0,0.02,-0.84,-4.5,39.68,39.37
72.795888,-1.83,-1.49,-9.93,0.01,0.0,-0.59,-4.5,39.68,39.37
72.819926,-2.71,-1.51,-9.81,0.01,0.02,-0.08,-6.25,40.75,38.56
72.839811,-1.88,-0.81,-9.93,0.0,0.01,0.1,-6.25,40.75,38.56
72.863941,0.38,0.03,-9.52,0.02,0.01,0.03,-6.25,39.56,39.75
72.887936,-0.03,0.1,-9.75,0.0,0.01,0.07,-6.25,39.56,39.75
72.907892,0.99,0.39,-9.69,0.01,0.02,0.07,-6.25,39.56,39.75
72.9319,-0.76,-0.7,-9.93,0.0,0.01,0.28,-5.56,41.0,39.0
72.951744,-1.33,-1.13,-9.67,-0.01,-0.02,0.69,-5.56,41.0,39.0
72.975878,-0.83,-0.62,-9.67,-0.05,-0.09,0.86,-5.5,39.5,40.56
72.999922,-0.57,-0.27,-9.52,-0.06,-0.04,0.58,-5.5,39.5,40.56
73.019936,-1.65,-1.04,-10.02,-0.12,-0.08,0.63,-5.5,39.5,40.56
73.043889,-1.66,-1.17,-9.84,-0.03,-0.03,0.99,-3.68,39.87,38.18
73.06792,-2.43,-1.34,-10.16,0.09,0.09,0.82,-3.68,39.87,38.18
73.088,-0.93,-0.39,-9.71,0.0,0.0,0.59,-2.5,39.87,39.37
73.111884,-0.41,0.34,-8.94,0.05,0.06,0.98,-2.5,39.87,39.37
73.131888,1.06,0.5,-10.07,0.01,0.02,1.11,-2.5,39.87,39.37
73.155945,1.36,-0.39,-10.08,0.01,0.01,1.79,-1.0,39.06,38.56
73.179885,0.78,0.13,-8.89,0.0,0.0,1.9,-1.0,39.06,38.56
73.199884,1.99,0.66,-10.19,-0.02,0.0,1.86,0.75,38.37,38.56
73.223924,1.77,0.52,-9.78,-0.11,-0.08,2.0,0.75,38.37,38.56
73.247953,1.21,0.16,-9.91,-0.15,-0.15,1.95,0.75,38.37,38.56
73.267906,-0.61,0.14,-9.94,0.02,0.01,1.18,3.75,36.5,38.56
73.291842,-0.66,0.05,-9.73,0.01,0.01,0.55,3.75,36.5,38.56
73.311765,-0.61,-0.09,-9.72,0.01,0.0,0.22,5.37,34.18,39.0
73.335789,-0.13,-0.12,-9.85,0.0,0.0,0.0,5.37,34.18,39.0
73.359843,0.01,-0.07,-9.83,0.0,0.0,0.0,8.25,33.75,39.37
73.379833,0.0,0.06,-9.77,0.0,0.0,0.0,8.25,33.75,39.37
73.403879,-0.09,-0.14,-9.86,0.0,0.0,0.0,8.56,33.0,38.56
73.427756,-0.13,-0.12,-9.83,0.0,0.0,0.0,8.56,33.0,38.56
73.447896,-0.28,-0.01,-9.75,0.0,0.0,0.0,8.56,33.0,38.56
73.47188,-0.32,0.02,-9.69,0.0,0.0,0.0,8.18,33.0,37.75
73.491864,-0.14,0.03,-9.77,0.0,0.0,0.0,8.18,33.0,37.75
73.515877,-0.02,0.04,-9.76,0.0,0.0,0.0,7.87,33.75,38.18
73.539884,0.01,0.08,-9.78,0.0,0.0,0.0,7.87,33.75,38.18
73.559842,-0.03,0.09,-9.75,0.0,0.0,0.0,7.87,33.75,38.18
73.583881,-0.12,0.1,-9.77,0.0,0.0,0.0,7.5,33.37,37.75
73.607846,-0.17,0.03,-9.72,0.0,0.0,0.0,7.5,33.37,37.75
73.627827,-0.15,-0.07,-9.86,0.0,0.0,0.0,8.87,33.37,39.37
73.651879,-0.19,-0.06,-9.81,0.0,0.0,0.0,8.87,33.37,39.37
73.67187,-0.2,0.0,-9.77,0.0,0.0,0.0,8.87,33.37,39.37
73.695872,-0.18,0.05,-9.77,0.0,0.0,0.0,7.06,33.37,38.56
73.719873,-0.12,0.07,-9.76,0.0,0.0,0.0,7.06,33.37,38.56
73.739882,-0.12,-0.05,-9.81,0.0,0.0,0.0,7.87,34.06,38.18
73.763884,-0.18,-0.09,-9.78,0.0,0.0,0.0,7.87,34.06,38.18
73.787879,-0.15,-0.04,-9.82,0.0,0.0,0.0,7.87,34.06,38.18
73.807915,-0.08,0.08,-9.77,0.0,0.0,0.0,7.87,32.56,38.56
73.831807,-0.08,0.09,-9.73,0.0,0.0,0.0,7.87,32.56,38.56
73.851774,-0.1,0.02,-9.77,0.0,0.0,0.0,8.25,34.06,37.75
73.875872,-0.15,-0.01,-9.77,0.0,0.0,0.0,8.25,34.06,37.75
73.899838,-0.16,-0.02,-9.77,0.0,0.0,0.0,8.25,34.06,37.75
73.919827,-0.16,-0.02,-9.77,0.0,0.0,0.0,7.5,34.06,38.56
73.943831,-0.16,0.01,-9.77,0.0,0.0,0.0,8.56,33.0,37.37
73.967914,-0.19,-0.01,-9.77,0.0,0.0,0.0,7.87,33.0,38.56
73.987879,-0.14,0.0,-9.77,0.0,0.0,0.0,7.87,33.0,38.56
74.011843,-0.1,0.01,-9.78,0.0,0.0,0.0,7.87,33.75,38.18
74.035849,-0.07,0.08,-9.76,0.0,0.0,0.0,7.87,33.75,38.18
74.055521,-0.11,0.03,-9.77,0.0,0.0,0.0,7.87,33.75,38.18
74.083709,-0.16,0.0,-9.76,0.0,0.0,0.0,7.87,32.56,37.75
74.099849,-0.15,0.02,-9.77,0.0,0.0,0.0,7.87,32.56,37.75
74.123838,-0.13,0.03,-9.77,0.0,0.0,0.0,8.25,33.37,39.0
74.147856,-0.14,0.01,-9.77,0.0,0.0,0.0,8.25,33.37,39.0
74.167849,-0.14,0.02,-9.77,0.0,0.0,0.0,8.25,33.37,39.0
74.191839,-0.15,0.02,-9.76,0.0,0.0,0.0,7.87,33.75,39.75
74.215823,-0.13,0.03,-9.77,0.0,0.0,0.0,7.87,33.75,39.75
74.235815,-0.15,0.02,-9.77,0.0,0.0,0.0,8.56,33.37,39.75
74.259771,-0.15,0.0,-9.78,0.0,0.0,0.0,8.56,33.37,39.75
74.279834,-0.13,0.0,-9.77,0.0,0.0,0.0,8.56,33.37,39.75
74.303835,-0.13,0.03,-9.76,0.0,0.0,0.0,7.87,33.0,38.56
74.327551,-0.16,0.0,-9.77,0.0,0.0,0.0,7.87,33.0,38.56
74.347743,-0.15,0.0,-9.77,0.0,0.0,0.0,8.25,33.37,37.37
74.371744,-0.12,0.01,-9.77,0.0,0.0,0.0,8.25,33.37,37.37
74.395746,-0.09,0.01,-9.78,0.0,0.0,0.0,8.25,33.37,37.37
74.415873,-0.12,0.03,-9.77,0.0,0.0,0.0,7.87,33.75,39.0
74.439703,-0.16,0.03,-9.77,0.0,0.0,0.0,7.87,33.75,39.0
74.459858,-0.15,0.01,-9.77,0.0,0.0,0.0,7.87,33.37,38.18
74.483874,-0.12,0.01,-9.76,0.0,0.0,0.0,7.5,34.06,38.56
74.507841,-0.1,0.07,-9.78,0.0,0.0,0.0,7.5,32.25,37.75
74.527734,-0.1,0.04,-9.69,0.0,0.0,0.0,7.5,32.25,37.75
74.551804,-0.13,0.02,-9.82,0.0,0.0,0.0,7.5,32.25,37.75
74.575849,-0.14,0.0,-9.77,0.0,0.0,0.0,7.87,33.75,38.18
74.595848,-0.14,0.0,-9.8,0.0,0.0,0.0,7.87,33.75,38.18
74.61984,-0.15,0.06,-9.71,0.0,0.0,0.0,7.87,33.75,37.75
74.639884,-0.16,0.05,-9.78,0.0,0.0,0.0,7.87,33.75,37.75
74.663893,-0.12,0.01,-9.74,0.0,0.0,0.0,7.87,33.75,37.75
74.687888,-0.13,0.0,-9.8,0.0,0.0,0.0,7.87,33.37,38.18
74.707765,-0.14,-0.03,-9.78,0.0,0.0,0.0,7.87,33.37,38.18
74.731882,-0.15,0.03,-9.77,0.0,0.0,0.0,7.87,33.0,39.37
74.755799,-0.12,0.05,-9.75,0.0,0.0,0.0,7.87,33.0,39.37
74.775849,-0.11,0.04,-9.76,0.0,0.0,0.0,7.87,33.0,39.37
74.799884,-0.11,0.01,-9.77,0.0,0.0,0.0,7.87,32.56,38.56
74.823888,-0.1,0.0,-9.77,0.0,0.0,0.0,7.87,32.56,38.56
74.843764,-0.13,0.01,-9.76,0.0,0.0,0.0,8.18,32.56,37.75
74.867817,-0.17,0.01,-9.81,0.0,0.0,0.0,8.18,32.56,37.75
74.887765,-0.15,0.03,-9.77,0.0,0.0,0.0,8.18,32.56,37.75
74.923829,-0.11,0.01,-9.77,0.0,0.0,0.0,7.87,33.0,39.37
74.943842,-0.12,0.02,-9.78,0.0,0.0,0.0,7.87,33.0,39.37
74.967886,-0.13,0.01,-9.77,0.0,0.0,0.0,7.87,33.75,37.75
74.991837,-0.12,0.02,-9.77,0.0,0.0,0.0,7.87,33.75,37.75
75.011839,-0.17,-0.02,-9.77,0.0,0.0,0.0,7.87,33.75,39.75
75.035887,-0.18,0.0,-9.81,0.0,0.0,0.0,7.87,33.75,39.75
75.059845,-0.15,0.02,-9.73,0.0,0.0,0.0,7.87,33.75,39.75
75.079839,-0.13,0.01,-9.77,0.0,0.0,0.0,8.25,33.0,37.37
75.103892,-0.11,0.01,-9.76,0.0,0.0,0.0,8.25,33.0,37.37
75.123906,-0.1,0.0,-9.77,0.0,0.0,0.0,7.5,33.37,38.56
75.147852,-0.11,0.03,-9.77,0.0,0.0,0.0,7.5,33.37,38.56
75.171884,-0.12,0.05,-9.76,0.0,0.0,0.0,7.5,33.37,38.56
75.191654,-0.17,0.01,-9.77,0.0,0.0,0.0,7.5,33.37,39.0
75.215689,-0.18,-0.01,-9.77,0.0,0.0,0.0,7.5,33.37,39.0
75.23978,-0.16,0.0,-9.78,0.0,0.0,0.0,7.87,33.37,39.0
75.25974,-0.12,0.03,-9.78,0.0,0.0,0.0,7.87,33.37,39.0
75.283733,-0.11,0.03,-9.76,0.0,0.0,0.0,7.87,33.37,39.0
75.307877,-0.16,0.01,-9.73,0.0,0.0,0.0,7.87,33.37,38.56
75.327757,-0.16,-0.01,-9.77,0.0,0.0,0.0,7.87,33.37,38.56
75.351769,-0.13,0.0,-9.78,0.0,0.0,0.0,8.25,33.37,39.37
75.371778,-0.09,0.04,-9.76,0.0,0.0,0.0,8.25,33.37,39.37
75.395756,-0.09,0.08,-9.77,0.0,0.0,0.0,8.25,33.37,39.37
75.419787,-0.12,0.07,-9.76,0.0,0.0,0.0,7.5,33.0,38.56
75.439757,-0.18,0.02,-9.77,0.0,0.0,0.0,7.5,33.0,38.56
75.463742,-0.15,0.08,-9.76,0.0,0.0,0.0,7.5,33.0,39.0
75.487884,-0.17,0.06,-9.74,0.0,0.0,0.0,7.5,33.0,39.0
75.507778,-0.11,-0.01,-9.8,0.0,0.0,0.0,7.87,33.37,38.18
75.531862,-0.14,0.0,-9.77,0.0,0.0,0.0,7.87,33.37,38.18
75.551888,-0.19,0.01,-9.77,0.0,0.0,0.0,7.87,33.37,38.18
75.575855,-0.16,0.0,-9.74,0.0,0.0,0.0,8.25,32.56,38.56
75.599899,-0.13,0.01,-9.76,0.0,0.0,0.0,8.25,32.56,38.56
75.61988,-0.11,0.01,-9.78,0.0,0.0,0.0,7.06,32.56,39.37
75.643848,-0.1,0.03,-9.77,0.0,0.0,0.0,7.06,32.56,39.37
75.667894,-0.12,0.02,-9.77,0.0,0.0,0.0,7.06,32.56,39.37
75.687881,-0.14,0.02,-9.76,0.0,0.0,0.0,8.25,33.0,40.18
75.711849,-0.1,0.02,-9.78,0.0,0.0,0.0,8.25,33.0,40.18
75.731887,-0.13,0.01,-9.77,0.0,0.0,0.0,7.5,33.37,37.75
75.75587,-0.1,0.01,-9.8,0.0,0.0,0.0,7.5,33.37,37.75
75.77984,-0.09,0.0,-9.8,0.0,0.0,0.0,7.5,33.37,37.75
75.799881,-0.15,0.01,-9.77,0.0,0.0,0.0,8.25,33.37,38.18
75.823879,-0.15,0.02,-9.78,0.0,0.0,0.0,8.25,33.37,38.18
75.847845,-0.15,0.03,-9.76,0.0,0.0,0.0,6.75,33.0,38.56
75.867835,-0.18,0.05,-9.74,0.0,0.0,0.0,6.75,33.0,38.56
75.892012,-0.12,0.05,-9.77,0.0,0.0,0.0,6.75,33.0,38.56
75.911996,-0.02,-0.05,-9.77,0.0,0.0,0.0,7.5,33.75,38.56
75.936014,-0.03,-0.09,-9.89,0.0,0.0,0.0,7.5,33.75,38.56
75.960015,-0.2,-0.02,-9.75,0.0,0.0,0.0,7.5,33.37,39.0
75.980022,-0.35,0.04,-9.74,0.0,0.0,0.0,7.5,33.37,39.0
76.004021,-0.03,-0.05,-9.82,0.0,0.0,0.0,8.25,33.37,38.56
76.028014,-0.16,-0.03,-9.81,0.0,0.0,0.0,8.25,33.37,38.56
76.047954,-0.24,0.01,-9.72,0.0,0.0,0.0,8.25,33.37,38.56
76.072017,-0.13,0.03,-9.77,0.0,0.0,0.0,7.5,33.75,39.75
76.095953,-0.06,0.0,-9.77,0.0,0.0,0.0,7.5,33.75,39.75
76.116004,-0.09,0.01,-9.8,0.0,0.0,0.0,8.25,33.0,39.0
76.140016,-0.17,0.0,-9.8,0.0,0.0,0.0,8.25,33.0,39.0
76.159941,-0.21,0.0,-9.78,0.0,0.0,0.0,8.25,33.0,39.0
76.184003,-0.19,0.04,-9.75,0.0,0.0,0.0,8.25,33.37,39.37
76.208004,-0.16,0.05,-9.76,0.0,0.0,0.0,8.25,33.37,39.37
76.228012,-0.04,0.08,-9.78,0.0,0.0,0.0,7.5,33.37,38.18
76.252,-0.04,0.06,-9.77,0.0,0.0,0.0,7.5,33.37,38.18
76.276043,-0.13,-0.01,-9.8,0.0,0.0,0.0,7.5,33.37,38.18
76.296024,-0.21,-0.04,-9.82,0.0,0.0,0.0,8.56,33.37,38.18
76.320038,-0.21,0.0,-9.8,0.0,0.0,0.0,8.56,33.37,38.18
76.339971,-0.09,0.06,-9.77,0.0,0.0,0.0,7.5,32.56,39.0
76.36394,-0.02,0.08,-9.82,0.0,0.0,0.0,7.5,32.56,39.0
76.387991,-0.08,0.02,-9.77,0.0,0.0,0.0,7.5,32.56,39.0
76.40792,-0.16,-0.01,-9.78,0.0,0.0,0.0,7.06,34.06,39.37
76.43205,-0.23,-0.02,-9.77,0.0,0.0,0.0,7.06,34.06,39.37
76.456065,-0.21,0.01,-9.76,0.0,0.0,0.0,7.5,33.75,39.0
76.476013,-0.1,0.04,-9.76,0.0,0.0,0.0,7.5,33.75,39.0
76.500021,-0.02,0.03,-9.8,0.0,0.0,0.0,7.5,33.75,39.0
76.52006,-0.02,0.05,-9.82,0.0,0.0,0.0,8.87,33.37,38.18
76.544012,-0.17,0.0,-9.8,0.0,0.0,0.0,6.75,33.37,37.75
76.568054,-0.13,0.0,-9.81,0.0,0.0,0.0,8.56,34.06,39.37
76.58801,-0.08,0.04,-9.77,0.0,0.0,0.0,8.56,34.06,39.37
76.612012,-0.12,0.08,-9.74,0.0,0.0,0.0,7.5,33.37,39.0
76.636051,-0.13,0.06,-9.77,0.0,0.0,0.0,7.5,33.37,39.0
76.656049,-0.19,-0.02,-9.77,0.0,0.0,0.0,7.5,33.37,39.0
76.68006,-0.17,0.01,-9.77,0.0,0.0,0.0,8.25,33.75,39.0
76.699946,-0.13,0.04,-9.77,0.0,0.0,0.0,8.25,33.75,39.0
76.723909,-0.13,0.04,-9.76,0.0,0.0,0.0,7.87,32.56,38.56
76.7479,-0.13,0.05,-9.78,0.0,0.0,0.0,7.87,32.56,38.56
76.767892,-0.17,0.01,-9.78,0.0,0.0,0.0,7.87,32.56,38.56
76.791865,-0.17,-0.03,-9.82,0.0,0.0,0.0,7.87,33.75,39.37
76.815899,-0.09,-0.03,-9.83,0.0,0.0,0.0,7.87,33.75,39.37
76.835851,-0.08,0.0,-9.8,0.0,0.0,0.0,7.06,33.75,37.75
76.859839,-0.09,0.07,-9.78,0.0,0.0,0.0,7.06,33.75,37.75
76.879846,-0.09,0.09,-9.76,0.0,0.0,0.0,7.06,33.75,37.75
76.903881,-0.14,0.03,-9.74,0.0,0.0,0.0,7.87,33.0,39.0
76.927838,-0.13,-0.09,-9.78,0.0,0.0,0.0,7.87,33.0,39.0
76.947892,-0.12,-0.08,-9.84,0.0,0.0,0.0,7.87,33.0,39.37
76.971877,-0.17,0.02,-9.76,0.0,0.0,0.0,7.87,33.0,39.37
76.995849,-0.22,0.05,-9.78,0.0,0.0,0.0,7.87,33.0,39.37
77.01583,-0.17,-0.01,-9.74,0.0,0.0,0.0,7.87,34.06,38.18
77.039847,-0.14,-0.04,-9.82,0.0,0.0,0.0,7.87,34.06,38.18
77.059838,-0.03,-0.02,-9.8,0.0,0.0,0.0,7.87,33.37,38.56
77.083837,-0.17,-0.02,-9.68,0.0,0.0,0.0,8.25,33.0,39.0
77.107841,-0.11,0.0,-9.75,0.0,0.0,0.0,8.25,33.37,38.18
77.127839,-0.13,0.02,-9.75,0.0,0.0,0.0,8.25,33.37,38.18
77.151874,-0.18,0.08,-9.73,0.0,0.0,0.0,8.25,33.37,38.18
77.175842,-0.16,0.03,-9.78,0.0,0.0,0.0,8.25,33.75,38.56
77.195831,-0.21,-0.23,-9.67,0.0,0.0,0.0,8.25,33.75,38.56
77.219852,-0.16,0.0,-10.45,0.0,0.0,0.0,7.87,33.75,39.0
77.243847,0.21,0.22,-9.25,0.0,0.0,0.0,7.87,33.75,39.0
77.263893,0.02,0.24,-10.05,0.0,0.0,0.0,7.87,33.75,39.0
77.287873,-0.23,-0.15,-9.28,0.0,0.0,0.0,8.56,33.75,37.37
77.307856,-0.28,-0.16,-10.09,0.0,0.0,0.0,8.56,33.75,37.37
77.331904,-0.22,-0.12,-9.47,0.0,0.0,0.0,7.87,33.0,39.0
77.355893,-0.15,0.16,-10.02,0.0,0.0,0.0,7.87,33.0,39.0
77.376159,-0.01,0.14,-9.42,0.0,0.0,0.0,7.87,33.0,39.0
77.399559,-0.12,0.11,-10.02,0.0,0.0,0.0,7.87,33.37,39.37
77.423699,-0.17,-0.06,-9.55,0.0,0.0,0.0,7.87,33.37,39.37
77.443662,-0.19,-0.08,-10.01,0.0,0.0,0.0,7.5,33.75,39.0
77.467793,-0.17,-0.08,-9.59,0.0,0.0,0.0,7.5,33.75,39.0
77.487787,-0.09,0.08,-9.93,0.0,0.0,0.0,7.5,33.75,39.0
77.51174,-0.06,0.08,-9.69,0.0,0.0,0.0,7.5,34.5,39.75
77.535786,-0.16,0.05,-9.86,0.0,0.0,0.0,7.5,34.5,39.75
77.555816,-0.21,-0.04,-9.69,0.0,0.0,0.0,7.87,33.0,37.75
77.579844,-0.21,-0.02,-9.91,0.0,0.0,0.0,7.87,33.0,37.75
77.603886,-0.14,-0.01,-9.72,0.0,0.0,0.0,7.87,33.0,37.75
77.623845,-0.12,0.01,-9.81,0.0,0.0,0.0,8.56,33.0,37.75
77.647894,-0.15,0.0,-9.77,0.0,0.0,0.0,8.56,33.0,37.75
77.667858,-0.12,0.02,-9.77,0.0,0.0,0.0,7.87,33.37,39.75
77.691849,-0.09,0.03,-9.76,0.0,0.0,0.0,7.87,33.37,39.75
77.715868,-0.09,0.02,-9.77,0.0,0.0,0.0,8.25,34.06,39.37
77.735838,-0.15,0.0,-9.77,0.0,0.0,0.0,8.25,34.06,39.37
77.75984,-0.16,0.01,-9.8,0.0,0.0,0.0,8.25,34.06,39.37
77.783839,-0.15,0.01,-9.75,0.0,0.0,0.0,8.25,33.75,38.18
77.803836,-0.12,0.04,-9.82,0.0,0.0,0.0,8.25,33.75,38.18
77.827762,-0.14,0.03,-9.71,0.0,0.0,0.0,8.18,33.0,38.56
77.847776,-0.17,0.03,-9.81,0.0,0.0,0.0,8.18,33.0,38.56
77.871742,-0.14,0.0,-9.76,0.0,0.0,0.0,8.18,33.0,38.56
77.895841,-0.13,-0.02,-9.8,0.0,0.0,0.0,7.87,33.75,39.75
77.91583,-0.1,0.0,-9.77,0.0,0.0,0.0,7.87,33.75,39.75
77.939776,-0.13,0.02,-9.77,0.0,0.0,0.0,7.87,33.37,38.18
77.963847,-0.14,0.03,-9.77,0.0,0.0,0.0,7.87,33.37,38.18
77.983832,-0.12,0.02,-9.76,0.0,0.0,0.0,7.87,33.37,38.18
78.00784,-0.11,0.0,-9.8,0.0,0.0,0.0,8.18,33.0,39.0
78.031844,-0.15,0.0,-9.78,0.0,0.0,0.0,8.18,33.0,39.0
78.051842,-0.17,0.02,-9.76,0.0,0.0,0.0,7.5,32.56,38.56
78.075827,-0.14,0.0,-9.77,0.0,0.0,0.0,7.5,32.56,38.56
78.095741,-0.12,0.02,-9.74,0.0,0.0,0.0,7.5,32.56,38.56
78.119842,-0.1,0.02,-9.77,0.0,0.0,0.0,8.56,33.75,37.75
