t,raw_acceleration_x,raw_acceleration_y,raw_acceleration_z,rotation_speed_x,rotation_speed_y,rotation_speed_z,magnetic_field_x,magnetic_field_y,magnetic_field_z
126.331963,-0.02,0.24,-9.97,-0.04,-0.03,0.0,40.68,33.87,44.25
126.351812,0.02,0.11,-9.65,0.0,0.0,0.0,41.25,33.87,44.68
126.375671,0.06,0.19,-9.72,0.0,0.0,0.0,41.25,33.87,44.68
126.395836,0.1,0.13,-9.8,0.0,0.0,0.0,41.68,32.75,45.06
126.419844,-0.08,0.17,-9.71,0.0,0.0,0.0,41.68,32.75,45.06
126.439848,-0.13,0.24,-9.83,0.0,0.0,0.0,41.68,32.75,45.06
126.463819,-0.14,0.17,-9.83,0.0,0.01,0.0,40.56,33.56,45.87
126.487844,0.1,-0.02,-9.74,0.0,0.0,0.0,40.56,33.56,45.87
126.507823,0.23,0.02,-9.76,0.0,0.0,0.0,40.87,33.18,44.68
126.531866,0.03,0.21,-9.81,0.0,-0.01,0.0,40.87,33.18,44.68
126.555846,-0.13,0.38,-9.76,0.0,0.0,0.0,40.87,33.56,44.25
126.575919,-0.86,-0.28,-9.75,0.06,0.03,0.7,40.87,33.56,44.25
126.599799,-1.41,-0.85,-9.74,0.02,0.02,1.52,40.87,33.56,44.25
126.619961,-0.11,0.03,-9.61,0.0,0.0,1.29,42.06,33.56,45.06
126.643913,2.71,2.1,-10.94,0.2,0.13,0.76,42.06,33.56,45.06
126.667853,-1.44,3.82,-8.8,0.24,0.26,0.35,42.06,33.56,45.06
126.687838,-0.21,0.48,-10.79,0.21,0.25,-0.09,42.75,32.18,45.5
126.711815,-0.89,0.91,-9.6,0.1,0.2,0.3,42.75,32.18,45.5
126.735849,-0.69,0.93,-9.55,0.23,0.25,0.29,43.56,31.06,43.06
126.755845,-0.06,-0.71,-9.26,0.06,0.13,0.19,43.56,31.06,43.06
126.779846,-1.72,1.75,-10.4,0.23,0.16,0.14,43.56,31.06,43.06
126.79985,-1.51,2.13,-10.07,0.15,0.03,-0.37,43.18,32.0,43.0
126.823865,-1.89,2.13,-9.21,-0.05,-0.08,-0.47,43.18,32.0,43.0
126.847809,-2.11,1.71,-9.64,-0.17,-0.13,-0.63,44.75,32.0,37.68
126.867765,-2.27,0.63,-9.77,-0.25,-0.25,-0.81,44.75,32.0,37.68
126.891822,-1.0,0.14,-10.16,0.05,-0.06,-0.67,40.87,36.68,11.68
126.915795,-1.29,-0.32,-9.52,-0.14,-0.18,-0.44,40.87,36.68,11.68
126.935826,-0.75,-0.28,-10.46,-0.22,-0.24,-0.38,40.87,36.68,11.68
126.959804,0.1,0.75,-9.86,0.0,0.0,-0.64,14.75,47.87,-0.06
126.98381,-0.01,0.62,-9.51,-0.03,-0.02,-0.64,14.75,47.87,-0.06
127.00374,0.95,0.14,-9.5,-0.01,0.0,-0.56,-13.0,58.0,18.56
127.027821,0.0,0.39,-9.67,-0.04,0.01,-0.34,-13.0,58.0,18.56
127.047871,0.4,-0.21,-10.44,-0.12,-0.04,-0.29,-13.0,58.0,18.56
127.071852,0.61,-0.43,-9.67,-0.04,-0.06,-0.12,-17.25,56.18,38.18
127.095807,1.82,-1.0,-9.89,0.01,-0.06,0.26,-17.25,56.18,38.18
127.115852,0.38,-0.77,-9.78,-0.01,-0.08,0.23,-15.5,54.06,46.75
127.13991,1.33,-1.26,-9.97,-0.01,-0.01,-0.18,-15.5,54.06,46.75
127.16399,3.05,-0.89,-9.5,0.0,-0.04,-0.19,-11.25,53.25,51.37
127.183954,3.69,0.0,-9.36,0.0,0.0,-0.19,-11.25,53.25,51.37
127.207918,3.25,0.24,-9.84,0.03,0.07,-0.16,-11.25,53.25,51.37
127.227915,3.1,-0.3,-10.28,-0.02,-0.03,-0.23,-10.37,52.37,53.18
127.251939,2.19,-0.21,-9.57,0.0,-0.02,-0.44,-10.37,52.37,53.18
127.275916,2.15,-1.91,-9.93,-0.09,-0.03,-0.47,-10.0,51.75,53.5
127.295935,1.93,-2.74,-9.77,-0.05,0.0,-0.37,-10.0,51.75,53.5
127.319691,0.5,-0.15,-9.49,-0.09,-0.15,-0.15,-10.0,51.75,53.5
127.343923,0.77,0.13,-10.19,0.13,-0.07,-0.31,-9.56,51.87,53.75
127.363835,-0.38,-0.09,-9.28,0.04,0.05,0.41,-9.56,51.87,53.75
127.387384,-0.31,0.35,-9.93,-0.01,0.0,0.0,-9.56,50.87,54.18
127.407681,-0.06,0.38,-9.77,0.0,0.0,0.0,-9.56,50.87,54.18
127.431732,-0.15,0.21,-9.74,0.0,0.0,0.0,-10.25,51.56,54.18
127.455769,-0.14,0.34,-9.72,0.0,0.0,0.0,-10.25,51.56,54.18
127.47576,-0.09,0.36,-9.75,0.0,0.0,0.0,-10.25,51.56,54.18
127.499856,0.12,0.16,-9.82,0.0,0.0,0.0,-9.56,51.25,53.68
127.523859,0.11,0.0,-9.85,0.0,0.0,0.0,-9.56,51.25,53.68
127.543811,-0.02,0.0,-9.76,0.0,0.0,0.0,-9.56,51.56,54.56
127.567846,-0.08,0.19,-9.76,0.0,0.0,0.0,-9.56,51.56,54.56
127.587858,-0.03,0.28,-9.77,0.0,0.0,0.0,-9.56,51.56,54.56
127.611795,0.02,0.28,-9.76,0.0,0.0,0.0,-9.87,51.56,54.56
127.635849,0.07,0.17,-9.77,0.0,0.0,0.0,-9.87,51.56,54.56
127.65573,0.02,0.07,-9.81,0.0,0.0,0.0,-9.87,51.25,53.37
127.679811,0.0,0.1,-9.78,0.0,0.0,0.0,-9.87,51.25,53.37
127.703817,-0.03,0.19,-9.77,0.0,0.0,0.0,-9.87,51.25,53.37
127.723824,0.0,0.26,-9.77,0.0,0.0,0.0,-9.18,51.56,54.18
127.747816,0.0,0.25,-9.77,0.0,0.0,0.0,-9.18,51.56,54.18
127.771815,0.01,0.13,-9.77,0.0,0.0,0.0,-10.25,50.87,54.18
127.791818,0.0,0.09,-9.8,0.0,0.0,0.0,-10.25,50.87,54.18
127.815808,0.01,0.12,-9.76,0.0,0.0,0.0,-10.25,50.87,54.18
127.835778,0.0,0.25,-9.77,0.0,0.0,0.0,-9.56,51.25,53.68
127.859688,0.0,0.27,-9.77,0.0,0.0,0.0,-9.56,51.25,53.68
127.883744,0.0,0.2,-9.77,0.0,0.0,0.0,-9.18,51.25,54.18
127.903743,0.0,0.12,-9.8,0.0,0.0,0.0,-9.18,51.25,54.18
127.927735,0.0,0.08,-9.78,0.0,0.0,0.0,-9.18,51.25,54.18
127.951755,0.0,0.14,-9.76,0.0,0.0,0.0,-9.87,52.37,54.56
127.971768,0.0,0.13,-9.78,0.0,0.0,0.0,-9.18,51.56,54.18
127.995764,-0.02,0.07,-9.83,0.0,0.0,0.0,-9.87,51.56,54.18
128.015737,0.0,0.16,-9.77,0.0,0.0,0.0,-9.87,51.56,54.18
128.039748,0.01,0.21,-9.78,0.0,0.0,0.0,-9.87,51.25,54.87
128.063854,0.0,0.26,-9.8,0.0,0.0,0.0,-9.87,51.25,54.87
128.083871,0.0,0.24,-9.77,0.0,0.0,0.0,-9.87,51.25,54.87
128.107849,0.02,0.12,-9.81,0.0,0.0,0.0,-9.56,51.25,54.87
128.131861,0.06,0.06,-9.8,0.0,0.0,0.0,-9.56,51.25,54.87
128.151863,0.03,0.13,-9.77,0.0,0.0,0.0,-9.87,51.25,53.68
128.175843,0.0,0.2,-9.77,0.0,0.0,0.0,-9.87,51.25,53.68
128.195836,-0.03,0.27,-9.75,0.0,0.0,0.0,-9.87,51.25,53.68
128.219874,-0.01,0.21,-9.78,0.0,0.0,0.0,-9.56,52.0,54.18
128.243845,0.0,0.15,-9.76,0.0,0.0,0.0,-9.56,52.0,54.18
128.263828,0.06,0.12,-9.81,0.0,0.0,0.0,-9.87,52.0,54.56
128.287891,0.03,0.12,-9.81,0.0,0.0,0.0,-9.87,52.0,54.56
128.311848,-0.03,0.2,-9.77,0.0,0.0,0.0,-9.87,52.0,54.56
128.331881,-0.03,0.24,-9.72,0.0,0.0,0.0,-9.87,51.25,54.56
128.355797,0.0,0.22,-9.78,0.0,0.0,0.0,-9.87,51.25,54.56
128.375759,0.03,0.17,-9.78,0.0,0.0,0.0,-9.56,51.25,53.37
128.399851,0.05,0.12,-9.82,0.0,0.0,0.0,-9.56,51.25,53.37
128.423881,0.0,0.14,-9.77,0.0,0.0,0.0,-9.56,51.25,53.37
128.443843,-0.02,0.18,-9.76,0.0,0.0,0.0,-10.25,51.25,52.56
128.467891,-0.02,0.23,-9.77,0.0,0.0,0.0,-10.25,51.25,52.56
128.491865,0.02,0.2,-9.76,0.0,0.0,0.0,-9.18,50.87,53.68
128.511842,-0.04,0.18,-9.75,0.0,0.0,0.0,-9.56,51.25,54.56
128.535885,0.0,0.23,-9.77,0.0,0.0,0.0,-9.56,51.56,55.68
128.555879,0.03,0.19,-9.77,0.0,0.0,0.0,-9.56,51.56,55.68
128.579837,0.03,0.14,-9.81,0.0,0.0,0.0,-9.56,51.56,55.68
128.60388,-0.01,0.13,-9.77,0.0,0.0,0.0,-9.18,51.25,54.18
128.623873,-0.04,0.17,-9.76,0.0,0.0,0.0,-9.18,51.25,54.18
128.647889,-0.02,0.19,-9.77,0.0,0.0,0.0,-9.18,51.56,55.37
128.671884,0.03,0.21,-9.77,0.0,0.0,0.0,-9.18,51.56,55.37
128.691831,0.05,0.2,-9.78,0.0,0.0,0.0,-9.18,51.56,55.37
128.715886,0.05,0.14,-9.77,0.0,0.0,0.0,-9.87,52.0,54.18
128.739881,-0.02,0.14,-9.77,0.0,0.0,0.0,-9.87,52.0,54.18
128.759874,-0.05,0.14,-9.77,0.0,0.0,0.0,-10.25,51.56,54.56
128.783874,-0.01,0.17,-9.77,0.0,0.0,0.0,-10.25,51.56,54.56
128.80387,0.02,0.2,-9.76,0.0,0.0,0.0,-10.25,51.56,54.56
128.827828,0.0,0.19,-9.75,0.0,0.0,0.0,-9.87,51.25,54.18
128.851597,0.0,0.17,-9.82,0.0,0.0,0.0,-9.87,51.25,54.18
128.871789,0.01,0.21,-9.77,0.0,0.0,0.0,-9.56,51.25,56.06
128.895746,0.03,0.2,-9.77,0.0,0.0,0.0,-9.56,51.25,56.06
128.919877,0.0,0.18,-9.77,0.0,0.0,0.0,-9.56,51.25,56.06
128.939875,-0.04,0.14,-9.77,0.0,0.0,0.0,-9.87,51.56,55.68
128.963848,-0.02,0.14,-9.74,0.0,0.0,0.0,-9.87,51.56,55.68
128.983889,0.0,0.18,-9.77,0.0,0.0,0.0,-9.87,52.0,54.56
129.007847,0.11,0.32,-9.8,0.0,0.0,0.0,-9.87,52.0,54.56
129.031877,0.16,0.35,-9.78,0.0,0.0,0.0,-9.87,52.0,54.56
129.051877,-0.01,-0.16,-9.75,0.0,0.0,0.0,-9.18,51.56,55.37
129.075841,0.12,0.01,-9.9,0.0,0.0,0.0,-9.18,51.56,55.37
129.099885,0.17,0.35,-9.75,0.0,0.0,0.0,-9.56,51.56,54.18
129.119882,0.07,0.62,-9.78,0.0,0.0,0.0,-9.56,51.56,54.18
129.143848,0.02,0.5,-9.75,0.0,0.0,0.0,-9.56,50.87,55.37
129.163894,-0.33,0.16,-9.69,0.0,0.0,0.0,-9.56,50.87,55.37
129.187877,-0.11,-0.19,-9.77,0.01,0.0,0.0,-9.56,50.87,55.37
129.211842,0.26,-0.14,-9.91,0.0,0.02,0.0,-9.56,51.56,53.68
129.231892,0.41,0.25,-9.91,0.0,0.0,0.0,-9.56,51.56,53.68
129.255887,0.17,0.28,-9.97,0.0,-0.01,0.0,-9.87,51.56,54.18
129.279848,-0.24,0.45,-9.67,0.0,-0.02,0.0,-9.87,51.56,54.18
129.299899,-0.27,0.39,-9.66,0.0,0.0,0.0,-9.87,51.56,54.18
129.323884,0.04,0.19,-9.82,0.0,0.0,0.0,-9.87,51.56,53.0
129.343832,0.21,0.01,-9.93,0.0,0.01,0.0,-9.87,51.56,53.0
129.367917,0.17,-0.06,-9.83,0.0,0.0,0.0,-9.56,50.5,53.68
129.391935,-0.1,0.05,-9.8,0.0,-0.01,0.0,-9.56,50.5,53.68
129.411928,-0.31,0.19,-9.67,0.0,-0.01,0.0,-9.56,50.5,53.68
129.435898,-0.17,0.17,-9.74,0.0,0.0,0.0,-8.75,52.0,53.0
129.460021,0.07,0.13,-9.78,0.0,0.01,0.0,-8.75,52.0,53.0
129.480016,0.28,0.16,-9.74,0.0,0.01,0.0,-9.56,50.87,54.87
129.504066,0.21,0.31,-9.83,0.0,0.0,0.0,-9.56,50.87,54.87
129.523985,-0.12,0.4,-9.89,0.0,-0.01,0.0,-9.56,50.87,54.87
129.548059,-0.21,0.28,-9.72,0.0,0.0,0.0,-9.18,50.87,53.68
129.57206,-0.09,-0.27,-9.71,0.0,0.0,0.0,-9.18,50.87,53.68
129.592023,0.19,0.97,-9.71,0.0,0.0,0.0,-9.56,51.25,53.68
129.616059,0.23,0.35,-9.88,0.0,0.0,0.0,-9.56,51.25,53.68
129.640015,-0.05,-0.28,-9.8,0.0,0.0,0.0,-9.87,51.25,54.18
129.660012,-0.38,-0.63,-9.76,0.0,0.0,0.0,-9.87,51.25,54.18
129.684016,-0.26,-0.33,-9.74,0.0,0.0,0.0,-9.87,51.25,54.18
129.70804,0.1,0.44,-9.77,0.0,0.0,0.0,-9.18,51.25,53.68
129.728036,0.28,0.79,-9.81,0.0,0.0,0.0,-9.18,51.25,53.68
129.752016,0.14,0.79,-9.84,0.0,0.0,0.0,-9.56,51.56,54.56
129.771997,0.0,0.1,-9.97,0.0,0.0,0.0,-9.56,51.56,54.56
129.796025,-0.11,-0.32,-9.85,0.0,0.0,0.0,-9.56,51.56,54.56
129.819703,-0.09,-0.35,-9.76,0.0,0.0,0.0,-10.25,51.56,54.87
129.839909,0.01,0.01,-9.74,0.0,0.0,0.0,-10.25,51.56,54.87
129.863932,0.09,0.61,-9.81,0.0,0.0,0.0,-10.25,51.25,54.56
129.887922,0.05,0.71,-9.77,0.0,0.0,0.0,-10.25,51.25,54.56
129.907914,-0.07,0.28,-9.77,0.0,0.0,0.0,-10.25,51.25,54.56
129.931922,-0.11,-0.05,-9.75,0.0,0.0,0.0,-9.87,51.25,53.68
129.95193,0.0,-0.22,-9.8,0.0,0.0,0.0,-9.87,51.25,53.68
129.975929,0.11,0.13,-9.82,0.0,0.0,0.0,-9.18,51.25,54.18
129.999915,0.08,0.42,-9.84,0.0,0.0,0.0,-9.18,51.25,54.18
130.019919,-0.05,0.45,-9.76,0.0,0.0,0.0,-9.18,51.25,54.18
130.043918,-0.09,0.24,-9.76,0.0,0.0,0.0,-9.56,51.25,54.87
130.067921,-0.04,-0.05,-9.77,0.0,0.0,0.0,-9.56,51.25,54.87
130.087934,0.07,-0.09,-9.82,0.0,0.0,0.0,-9.87,51.25,54.56
130.111927,0.1,0.22,-9.85,0.0,0.0,0.0,-9.87,51.25,54.56
130.13196,0.0,-0.1,-9.77,0.0,0.0,0.0,-9.56,51.25,53.68
130.15595,0.12,0.0,-9.81,0.0,0.0,0.0,-9.56,51.25,53.68
130.17996,0.09,0.23,-9.78,0.0,0.0,0.0,-9.56,51.25,53.68
130.19996,-0.04,0.47,-9.76,0.0,0.0,0.0,-9.56,52.0,54.56
130.223955,-0.1,0.44,-9.75,0.0,0.0,0.0,-9.56,52.0,54.56
130.247977,-0.02,0.09,-9.77,0.0,0.0,0.0,-9.18,50.87,54.18
130.26791,0.04,-0.11,-9.83,0.0,0.0,0.0,-9.18,50.87,54.18
130.291931,0.1,-0.11,-9.82,0.0,0.0,0.0,-9.18,50.87,54.18
130.311957,0.02,0.14,-9.8,0.0,0.0,0.0,-9.87,51.56,53.68
130.335831,-0.05,0.47,-9.76,0.0,0.0,0.0,-9.87,51.56,53.68
130.359857,-0.05,0.44,-9.76,0.0,0.0,0.0,-9.87,50.87,54.56
130.379829,0.01,0.22,-9.77,0.0,0.0,0.0,-9.87,50.87,54.56
130.403973,0.08,-0.13,-9.81,0.0,0.0,0.0,-9.87,50.87,54.56
130.427912,0.05,-0.15,-9.78,0.0,0.0,0.0,-9.87,52.0,54.87
130.447953,-0.05,0.15,-9.74,0.0,0.0,0.0,-9.87,52.0,54.87
130.47197,-0.07,0.38,-9.74,0.0,0.0,0.0,-10.25,51.25,54.87
130.503963,0.0,0.49,-9.75,0.0,0.0,0.0,-10.25,51.25,54.87
130.527919,0.04,0.35,-9.77,0.0,0.0,0.0,-10.25,51.25,54.87
130.551967,0.08,-0.02,-9.82,0.0,0.0,0.0,-9.87,52.37,53.68
130.571954,0.01,-0.12,-9.78,0.0,0.0,0.0,-9.87,52.37,53.68
130.595924,0.12,0.31,-9.81,0.0,0.0,0.0,-9.18,52.0,54.87
130.615962,0.08,0.12,-9.77,0.0,0.0,0.0,-9.18,52.0,54.87
130.639957,-0.05,-0.07,-9.77,0.0,0.0,0.0,-9.18,51.25,54.87
130.66396,-0.08,0.01,-9.72,0.0,0.0,0.0,-9.18,51.25,54.87
130.683958,-0.03,0.21,-9.81,0.0,0.0,0.0,-9.18,51.25,54.87
130.707927,0.03,0.35,-9.74,0.0,0.0,0.0,-9.56,50.87,53.37
130.731961,0.06,0.3,-9.8,0.0,0.0,0.0,-9.56,50.87,53.37
130.751965,-0.03,0.11,-9.8,0.0,0.0,0.0,-9.56,51.25,54.56
130.775922,-0.07,0.04,-9.77,0.0,0.0,0.0,-9.56,51.25,54.56
130.795918,-0.04,0.08,-9.82,0.0,0.0,0.0,-9.56,51.25,54.56
130.819797,0.0,0.21,-9.8,0.0,0.0,0.0,-9.87,51.56,53.37
130.843802,0.07,0.3,-9.82,0.0,0.0,0.0,-9.87,51.56,53.37
130.863846,0.02,0.25,-9.77,0.0,0.0,0.0,-9.18,51.25,54.18
130.887875,-0.04,0.12,-9.82,0.0,0.0,0.0,-9.18,51.25,54.18
130.911912,-0.03,0.08,-9.8,0.0,0.0,0.0,-9.18,51.25,54.18
130.931947,-0.01,0.13,-9.81,0.0,0.0,0.0,-9.56,52.0,54.87
130.955975,0.07,0.24,-9.75,0.0,0.0,0.0,-9.56,52.0,54.87
130.975935,0.03,0.23,-9.82,0.0,0.0,0.0,-9.87,51.56,53.68
130.999961,0.0,0.16,-9.75,0.0,0.0,0.0,-9.87,51.56,53.68
131.02388,-0.03,0.11,-9.77,0.0,0.0,0.0,-9.87,51.56,53.68
131.043924,0.01,0.1,-9.75,0.0,0.0,0.0,-10.25,51.56,54.56
131.067878,0.02,0.17,-9.82,0.0,0.0,0.0,-10.25,51.56,54.56
131.092021,0.04,0.27,-9.8,0.0,0.0,0.0,-9.56,50.5,54.18
131.112011,0.0,0.28,-9.84,0.0,0.0,0.0,-9.56,50.5,54.18
131.136045,0.06,0.18,-9.77,0.0,0.0,0.0,-9.56,51.25,54.56
131.156045,0.02,0.27,-9.77,0.0,0.0,0.0,-9.56,51.25,54.56
131.179993,-0.02,0.28,-9.76,0.0,0.0,0.0,-9.56,51.25,54.56
131.204061,-0.05,0.2,-9.75,0.0,0.0,0.0,-9.18,51.25,53.37
131.223979,0.0,0.06,-9.76,0.0,0.0,0.0,-9.18,51.25,53.37
131.247979,0.03,0.04,-9.81,0.0,0.0,0.0,-10.25,51.25,54.56
131.272107,0.03,0.15,-9.77,0.0,0.0,0.0,-10.25,51.25,54.56
131.292014,0.01,0.23,-9.77,0.0,0.0,0.0,-10.25,51.25,54.56
131.315966,-0.06,0.28,-9.73,0.0,0.0,0.0,-9.87,51.25,54.56
131.339924,-0.02,0.21,-9.77,0.0,0.0,0.0,-9.87,51.25,54.56
131.359992,0.03,0.12,-9.77,0.0,0.0,0.0,-9.87,50.87,54.87
131.383971,0.05,0.06,-9.83,0.0,0.0,0.0,-9.87,50.87,54.87
131.403956,0.03,0.12,-9.8,0.0,0.0,0.0,-9.87,50.87,54.87
131.427924,-0.04,0.25,-9.77,0.0,0.0,0.0,-9.18,52.0,54.56
131.451963,-0.03,0.28,-9.75,0.0,0.0,0.0,-9.18,52.0,54.56
131.471953,0.0,0.25,-9.76,0.0,0.0,0.0,-9.56,52.0,54.18
131.495916,0.05,0.16,-9.81,0.0,0.0,0.0,-9.56,52.0,54.18
131.519914,0.04,0.1,-9.8,0.0,0.0,0.0,-9.56,52.0,54.18
131.539925,-0.01,0.12,-9.78,0.0,0.0,0.0,-9.87,51.25,54.18
131.564013,-0.05,0.19,-9.77,0.0,0.0,0.0,-9.87,51.25,54.18
131.583997,0.01,0.25,-9.76,0.0,0.0,0.0,-9.56,51.25,53.37
131.608018,0.0,0.22,-9.78,0.0,0.0,0.0,-9.56,51.25,53.37
131.632041,0.03,0.16,-9.77,0.0,0.0,0.0,-8.75,51.56,54.18
131.652015,0.01,0.13,-9.77,0.0,0.0,0.0,-8.75,51.56,54.18
131.675937,0.03,0.18,-9.77,0.0,0.0,0.0,-9.56,51.56,53.37
131.700009,0.03,0.16,-9.77,0.0,0.0,0.0,-9.87,52.37,54.18
131.719997,0.0,0.15,-9.78,0.0,0.0,0.0,-9.87,52.37,54.18
131.744019,-0.02,0.17,-9.77,0.0,0.0,0.0,-8.75,51.25,54.87
131.764024,0.0,0.2,-9.8,0.0,0.0,0.0,-8.75,51.25,54.87
131.787997,0.0,0.18,-9.76,0.0,0.0,0.0,-8.75,51.25,54.87
131.812008,0.01,0.17,-9.76,0.0,0.0,0.0,-9.87,51.25,54.87
131.831934,0.01,0.13,-9.8,0.0,0.0,0.0,-9.87,51.25,54.87
131.855948,-0.02,0.18,-9.77,0.0,0.0,0.0,-9.56,50.87,54.18
131.879912,0.0,0.19,-9.78,0.0,0.0,0.0,-9.56,50.87,54.18
131.900021,0.01,0.22,-9.76,0.0,0.0,0.0,-9.56,50.87,54.18
131.92401,0.01,0.18,-9.8,0.0,0.0,0.0,-9.56,52.0,53.68
131.943945,0.0,0.13,-9.78,0.0,0.0,0.0,-9.56,52.0,53.68
131.968004,0.0,0.14,-9.77,0.0,0.0,0.0,-10.25,50.87,53.68
131.992001,0.01,0.14,-9.77,0.0,0.0,0.0,-10.25,50.87,53.68
132.012007,-0.01,0.18,-9.78,0.0,0.0,0.0,-10.25,51.25,54.56
132.036025,0.02,0.21,-9.77,0.0,0.0,0.0,-10.25,51.25,54.56
132.06001,0.0,0.2,-9.8,0.0,0.0,0.0,-10.25,51.25,54.56
132.080034,0.01,0.17,-9.75,0.0,0.0,0.0,-10.25,50.5,53.68
132.104053,-0.01,0.13,-9.78,0.0,0.0,0.0,-10.25,50.5,53.68
132.127999,0.0,0.15,-9.73,0.0,0.0,0.0,-9.87,52.0,55.37
132.14808,0.0,0.19,-9.84,0.0,0.0,0.0,-9.87,52.0,55.37
132.172056,0.02,0.21,-9.77,0.0,0.0,0.0,-9.87,52.0,55.37
132.191993,0.01,0.22,-9.77,0.0,0.0,0.0,-9.87,51.25,54.18
132.216045,0.0,0.18,-9.84,0.0,0.0,0.0,-9.56,51.25,53.68
132.240043,0.02,0.2,-9.8,0.0,0.0,0.0,-9.56,51.25,54.18
132.260011,0.01,0.23,-9.84,0.0,0.0,0.0,-9.56,51.25,54.18
132.284049,-0.01,0.19,-9.8,0.0,0.0,0.0,-9.87,51.56,54.87
132.308002,0.0,0.17,-9.75,0.0,0.0,0.0,-9.87,51.56,54.87
132.328001,0.0,0.17,-9.74,0.0,0.0,0.0,-9.87,51.56,54.87
132.352048,0.01,0.15,-9.74,0.0,0.0,0.0,-8.75,50.87,53.37
132.372207,0.01,0.2,-9.82,0.0,0.0,0.0,-8.75,50.87,53.37
132.395702,0.01,0.19,-9.72,0.0,0.0,0.0,-9.18,52.0,54.18
132.419887,0.0,0.16,-9.81,0.0,0.0,0.0,-9.18,52.0,54.18
132.439939,0.01,0.13,-9.74,0.0,0.0,0.0,-9.18,52.0,54.18
132.463935,0.0,0.16,-9.81,0.0,0.0,0.0,-9.87,51.56,54.18
132.487959,0.01,0.18,-9.78,0.0,0.0,0.0,-9.87,51.56,54.18
132.507952,0.01,0.21,-9.77,0.0,0.0,0.0,-9.56,51.56,54.56
132.531897,0.02,0.2,-9.76,0.0,0.0,0.0,-9.56,51.56,54.56
132.551956,0.0,0.18,-9.84,0.0,0.0,0.0,-9.56,51.56,54.56
132.576024,0.0,0.15,-9.73,0.0,0.0,0.0,-9.87,51.56,53.68
132.600006,0.0,0.16,-9.82,0.0,0.0,0.0,-9.87,51.56,53.68
132.620036,0.01,0.16,-9.78,0.0,0.0,0.0,-9.87,51.25,54.18
132.644,0.01,0.21,-9.78,0.0,0.0,0.0,-9.87,51.25,54.18
132.668043,0.01,0.21,-9.75,0.0,0.0,0.0,-9.87,51.25,54.18
132.688055,-0.01,0.16,-9.8,0.0,0.0,0.0,-9.18,51.56,54.56
132.711999,-0.02,0.14,-9.77,0.0,0.0,0.0,-9.18,51.56,54.56
132.732039,-0.01,0.12,-9.77,0.0,0.0,0.0,-9.56,51.56,53.68
132.756062,0.0,0.19,-9.78,0.0,0.0,0.0,-9.18,52.0,53.68
132.780011,-0.02,0.15,-9.77,0.0,0.0,0.0,-9.56,51.25,53.68
132.80004,0.02,0.14,-9.77,0.0,0.0,0.0,-9.56,51.25,53.68
132.82405,0.01,0.16,-9.77,0.0,0.0,0.0,-9.56,51.25,53.68
132.847915,0.01,0.22,-9.74,0.0,0.0,0.0,-9.18,51.56,54.87
132.867974,0.0,0.21,-9.77,0.0,0.0,0.0,-9.18,51.56,54.87
132.891923,0.0,0.19,-9.77,0.0,0.0,0.0,-9.56,52.0,54.87
132.911921,0.01,0.14,-9.77,0.0,0.0,0.0,-9.56,52.0,54.87
132.935958,0.0,0.16,-9.85,0.0,0.0,0.0,-9.56,52.0,54.87
132.959921,0.04,0.17,-9.77,0.0,0.0,0.0,-9.87,52.0,53.68
132.979975,-0.01,0.21,-9.83,0.0,0.0,0.0,-9.87,52.0,53.68
133.003965,0.0,0.18,-9.71,0.0,0.0,0.0,-9.56,52.0,54.56
133.027918,-0.01,0.17,-9.83,0.0,0.0,0.0,-9.56,52.0,54.56
133.048053,0.02,0.14,-9.74,0.0,0.0,0.0,-9.56,52.0,54.56
133.071973,0.02,0.15,-9.81,0.0,0.0,0.0,-9.87,51.56,53.37
133.096034,0.0,0.2,-9.73,0.0,0.0,0.0,-9.87,51.56,53.37
133.116009,-0.03,0.19,-9.82,0.0,0.0,0.0,-8.75,51.56,54.56
133.140058,0.0,0.16,-9.73,0.0,0.0,0.0,-8.75,51.56,54.56
133.16001,0.01,0.17,-9.85,0.0,0.0,0.0,-8.75,51.56,54.56
133.184065,0.01,0.17,-9.75,0.0,0.0,0.0,-9.18,51.25,53.0
133.208024,0.01,0.17,-9.82,0.0,0.0,0.0,-9.18,51.25,53.0
133.228008,0.0,0.19,-9.75,0.0,0.0,0.0,-9.18,52.0,54.56
133.252065,-0.02,0.21,-9.8,0.0,0.0,0.0,-9.18,52.0,54.56
133.276022,0.0,0.2,-9.72,0.0,0.0,0.0,-9.18,52.0,54.56
133.295915,-0.02,0.14,-9.78,0.0,0.0,0.0,-9.18,51.56,54.87
133.319804,-0.11,0.46,-9.69,0.0,0.0,0.0,-9.18,51.56,54.87
133.340043,-0.04,0.4,-9.82,0.0,0.0,0.0,-9.87,51.25,54.18
133.363942,0.06,0.2,-9.77,0.0,0.0,0.0,-9.87,51.25,54.18
133.387966,0.11,-0.07,-9.83,0.0,0.0,0.0,-9.18,51.56,54.56
133.407923,0.06,-0.06,-9.8,0.0,0.0,0.0,-9.18,51.56,54.56
133.431922,-0.09,0.15,-9.77,0.0,0.0,0.0,-9.18,51.56,54.56
133.456054,-0.09,0.34,-9.77,0.0,0.0,0.0,-9.56,50.87,52.56
133.476018,0.0,0.37,-9.8,0.0,0.0,0.0,-9.56,50.87,52.56
133.499837,0.09,0.24,-9.77,0.0,0.0,0.0,-9.87,51.25,54.87
133.520075,0.06,0.0,-9.85,0.0,0.0,0.0,-9.87,51.25,54.87
133.544027,-0.03,0.02,-9.76,0.0,0.0,0.0,-9.87,51.25,54.87
133.576028,-0.09,0.12,-9.77,0.0,0.0,0.0,-9.18,50.87,53.37
133.600022,-0.02,0.28,-9.74,0.0,0.0,0.0,-9.18,50.87,53.37
133.624028,0.05,0.34,-9.8,0.0,0.0,0.0,-9.56,51.56,53.68
133.643993,0.11,0.19,-9.81,0.0,0.0,0.0,-9.56,51.56,53.68
133.668019,0.03,0.07,-9.82,0.0,0.0,0.0,-9.56,51.56,53.68
133.691951,-0.03,0.03,-9.74,0.0,0.0,0.0,-9.56,50.87,53.0
133.712014,-0.08,0.13,-9.83,0.0,0.0,0.0,-9.56,50.87,53.0
133.736022,-0.01,0.05,-9.77,0.0,0.0,0.0,-9.56,50.5,54.18
133.76003,-0.07,0.07,-9.77,0.0,0.0,0.0,-9.56,50.5,54.18
133.780008,-0.01,0.21,-9.73,0.0,0.0,0.0,-9.87,51.56,53.68
133.804026,0.03,0.27,-9.81,0.0,0.0,0.0,-9.87,51.56,53.68
133.824008,0.07,0.25,-9.77,0.0,0.0,0.0,-9.87,51.56,53.68
133.848031,0.01,0.18,-9.77,0.0,0.0,0.0,-9.87,51.25,53.37
133.872019,-0.05,0.05,-9.77,0.0,0.0,0.0,-9.87,51.25,53.37
133.892015,-0.05,0.06,-9.77,0.0,0.0,0.0,-9.87,51.56,54.87
133.91601,0.02,0.19,-9.8,0.0,0.0,0.0,-9.87,51.56,54.87
133.940013,0.07,0.31,-9.8,0.0,0.0,0.0,-9.87,51.56,54.87
133.960011,0.02,0.3,-9.78,0.0,0.0,0.0,-9.56,51.25,53.37
133.984026,-0.03,0.11,-9.77,0.0,0.0,0.0,-9.56,51.25,53.37
134.004023,-0.04,0.08,-9.77,0.0,0.0,0.0,-9.56,51.25,54.56
134.028027,0.01,0.08,-9.8,0.0,0.0,0.0,-9.56,51.25,54.56
134.052033,0.06,0.18,-9.8,0.0,0.0,0.0,-9.56,51.25,54.56
134.072054,0.05,0.3,-9.77,0.0,0.0,0.0,-9.18,51.25,53.68
134.09602,0.0,0.27,-9.77,0.0,0.0,0.0,-9.18,51.25,53.68
134.120045,-0.03,0.18,-9.77,0.0,0.0,0.0,-9.56,51.56,54.56
134.139997,-0.03,0.08,-9.78,0.0,0.0,0.0,-9.56,51.56,54.56
134.164032,0.01,0.06,-9.77,0.0,0.0,0.0,-9.56,51.56,54.56
134.184063,0.05,0.19,-9.78,0.0,0.0,0.0,-9.18,50.87,55.37
134.208046,0.02,0.25,-9.8,0.0,0.0,0.0,-9.18,50.87,55.37
134.232058,-0.03,0.25,-9.77,0.0,0.0,0.0,-9.87,51.56,54.18
134.251953,-0.04,0.19,-9.77,0.0,0.0,0.0,-9.87,51.56,54.18
134.275784,-0.01,0.2,-9.76,0.0,0.0,0.0,-9.87,51.56,54.87
134.300065,-0.05,0.24,-9.77,0.0,0.0,0.0,-9.87,51.56,54.87
134.319664,0.01,0.18,-9.75,0.0,0.0,0.0,-9.87,51.56,54.87
134.343755,0.04,0.11,-9.8,0.0,0.0,0.0,-8.75,51.56,53.68
134.363873,0.05,0.13,-9.82,0.0,0.0,0.0,-8.75,51.56,53.68
134.387852,0.0,0.15,-9.77,0.0,0.0,0.0,-8.37,51.56,54.56
134.411863,-0.04,0.2,-9.76,0.0,0.0,0.0,-8.37,51.56,54.56
134.431935,-0.03,0.22,-9.77,0.0,0.0,0.0,-8.37,51.56,54.56
134.455925,0.03,0.19,-9.77,0.0,0.0,0.0,-9.56,51.56,54.56
134.479928,0.03,0.15,-9.78,0.0,0.0,0.0,-9.56,51.56,54.56
134.499995,0.04,0.14,-9.78,0.0,0.0,0.0,-9.87,51.56,53.68
134.523982,-0.02,0.17,-9.77,0.0,0.0,0.0,-9.87,51.56,53.68
134.547979,-0.03,0.19,-9.77,0.0,0.0,0.0,-9.87,51.56,53.68
134.567972,0.02,0.21,-9.77,0.0,0.0,0.0,-9.56,50.87,53.68
134.603962,0.02,0.17,-9.78,0.0,0.0,0.0,-9.56,50.87,53.68
134.623969,0.02,0.14,-9.78,0.0,0.0,0.0,-9.56,51.56,54.56
134.647994,-0.01,0.12,-9.78,0.0,0.0,0.0,-9.56,51.56,54.56
134.667971,-0.03,0.19,-9.76,0.0,0.0,0.0,-9.56,51.56,54.56
134.691921,-0.01,0.21,-9.76,0.0,0.0,0.0,-9.87,51.25,53.37
134.715972,0.03,0.21,-9.82,0.0,0.0,0.0,-9.87,51.25,53.37
134.735964,-0.03,0.17,-9.78,0.0,0.0,0.0,-9.56,51.56,54.18
134.759934,0.0,0.23,-9.77,0.0,0.0,0.0,-9.56,51.56,54.18
134.783927,0.04,0.2,-9.78,0.0,0.0,0.0,-9.56,51.25,54.18
134.803951,0.04,0.18,-9.82,0.0,0.0,0.0,-9.56,51.25,54.18
134.827924,0.01,0.15,-9.77,0.0,0.0,0.0,-9.56,51.25,54.18
134.847959,-0.02,0.14,-9.77,0.0,0.0,0.0,-9.56,51.56,53.68
134.871935,-0.01,0.16,-9.78,0.0,0.0,0.0,-9.56,51.56,53.68
134.895927,0.02,0.2,-9.84,0.0,0.0,0.0,-9.18,52.0,55.37
134.915979,0.06,0.19,-9.77,0.0,0.0,0.0,-9.18,52.0,55.37
134.93997,-0.01,0.16,-9.75,0.0,0.0,0.0,-9.18,52.0,55.37
134.963966,-0.03,0.13,-9.8,0.0,0.0,0.0,-9.56,51.25,53.37
134.983977,-0.03,0.16,-9.76,0.0,0.0,0.0,-9.56,51.25,53.37
135.00793,0.03,0.19,-9.78,0.0,0.0,0.0,-9.56,51.25,53.68
135.031937,0.04,0.2,-9.75,0.0,0.0,0.0,-9.56,51.25,53.68
135.051975,0.0,0.16,-9.81,0.0,0.0,0.0,-9.56,51.25,53.68
135.075938,-0.01,0.17,-9.74,0.0,0.0,0.0,-9.87,51.25,53.0
135.095916,-0.02,0.17,-9.81,0.0,0.0,0.0,-9.87,51.25,53.0
135.119969,0.03,0.17,-9.75,0.0,0.0,0.0,-9.87,51.56,54.87
135.143921,0.01,0.18,-9.89,0.0,0.0,0.0,-9.87,51.56,54.87
135.163904,0.01,0.21,-9.75,0.0,0.0,0.0,-9.87,51.56,54.87
135.187971,-0.01,0.17,-9.86,0.0,0.0,0.0,-9.18,51.25,54.18
135.211933,0.0,0.17,-9.77,0.0,0.0,0.0,-9.18,51.25,54.18
135.231928,0.0,0.18,-9.78,0.0,0.0,0.0,-9.87,51.25,54.18
135.255854,0.01,0.16,-9.81,0.0,0.0,0.0,-9.87,51.25,54.18
135.275936,-0.01,0.16,-9.77,0.0,0.0,0.0,-8.75,51.25,54.18
135.299854,0.03,0.19,-9.77,0.0,0.0,0.0,-8.75,51.25,54.18
135.323969,0.01,0.18,-9.81,0.0,0.0,0.0,-8.75,51.25,54.18
135.343847,0.0,0.16,-9.74,0.0,0.0,0.0,-9.87,51.56,54.18
135.367969,-0.02,0.19,-9.78,0.0,0.0,0.0,-9.87,51.56,54.18
135.391832,0.0,0.16,-9.77,0.0,0.0,0.0,-9.18,51.56,55.37
135.411857,0.0,0.19,-9.8,0.0,0.0,0.0,-9.18,51.56,55.37
135.435919,0.01,0.2,-9.77,0.0,0.0,0.0,-9.18,51.56,55.37
135.455975,0.0,0.19,-9.78,0.0,0.0,0.0,-9.56,51.25,54.18
135.479915,0.0,0.17,-9.77,0.0,0.0,0.0,-9.56,51.25,54.18
135.503922,0.0,0.16,-9.76,0.0,0.0,0.0,-10.25,51.56,54.56
135.523919,0.0,0.16,-9.81,0.0,0.0,0.0,-10.25,51.56,54.56
135.547952,0.01,0.18,-9.74,0.0,0.0,0.0,-10.25,51.56,54.56
135.571876,0.01,0.2,-9.8,0.0,0.0,0.0,-9.87,50.87,52.56
135.591927,0.02,0.2,-9.77,0.0,0.0,0.0,-9.87,50.87,52.56
135.61593,0.0,0.18,-9.81,0.0,0.0,0.0,-8.37,50.87,53.37
135.635825,0.0,0.17,-9.78,0.0,0.0,0.0,-8.37,50.87,53.37
135.659937,0.01,0.16,-9.78,0.0,0.0,0.0,-8.37,50.87,53.37
135.683926,0.03,0.17,-9.81,0.0,0.0,0.0,-9.56,51.25,54.18
135.703928,0.0,0.18,-9.81,0.0,0.0,0.0,-9.56,51.25,54.18
135.727932,0.01,0.18,-9.77,0.0,0.0,0.0,-9.87,51.56,55.37
135.752024,0.0,0.15,-9.75,0.0,0.0,0.0,-9.87,51.56,55.37
135.772016,-0.01,0.17,-9.82,0.0,0.0,0.0,-9.87,51.56,55.37
135.796001,0.01,0.18,-9.78,0.0,0.0,0.0,-9.56,51.25,53.68
135.815974,0.0,0.17,-9.77,0.0,0.0,0.0,-9.18,50.87,54.87
135.839932,0.01,0.17,-9.78,0.0,0.0,0.0,-9.56,52.0,54.56
135.86393,0.02,0.17,-9.77,0.0,0.0,0.0,-9.56,52.0,54.56
135.883924,0.02,0.2,-9.77,0.0,0.0,0.0,-9.87,50.87,54.56
135.907918,0.01,0.19,-9.77,0.0,0.0,0.0,-9.87,50.87,54.56
135.932005,0.0,0.2,-9.77,0.0,0.0,0.0,-9.87,50.87,54.56
135.951919,0.01,0.17,-9.73,0.0,0.0,0.0,-10.25,51.25,55.37
135.975913,0.01,0.16,-9.77,0.0,0.0,0.0,-10.25,51.25,55.37
135.995906,0.0,0.16,-9.8,0.0,0.0,0.0,-9.56,51.25,54.18
136.019901,0.01,0.15,-9.81,0.0,0.0,0.0,-9.56,51.25,54.18
136.043925,0.02,0.16,-9.77,0.0,0.0,0.0,-9.56,51.25,54.18
136.063964,0.0,0.19,-9.78,0.0,0.0,0.0,-9.87,51.56,53.0
136.087951,0.0,0.18,-9.77,0.0,0.0,0.0,-9.87,51.56,53.0
136.111915,0.01,0.18,-9.78,0.0,0.0,0.0,-9.56,51.25,53.68
136.131919,0.01,0.17,-9.8,0.0,0.0,0.0,-9.56,51.25,53.68
136.155985,-0.01,0.19,-9.81,0.0,0.0,0.0,-9.56,51.25,53.68
136.179871,0.01,0.19,-9.8,0.0,0.0,0.0,-10.25,51.25,53.37
136.199965,0.0,0.2,-9.77,0.0,0.0,0.0,-10.25,51.25,53.37
136.223975,0.01,0.17,-9.77,0.0,0.0,0.0,-9.56,50.5,54.56
136.24391,0.01,0.15,-9.81,0.0,0.0,0.0,-9.56,50.5,54.56
136.268047,0.01,0.16,-9.76,0.0,0.0,0.0,-9.56,50.5,54.56
136.29202,0.0,0.16,-9.77,0.0,0.0,0.0,-9.18,51.56,54.87
136.311916,0.0,0.18,-9.77,0.0,0.0,0.0,-9.18,51.56,54.87
136.33639,0.0,0.2,-9.78,0.0,0.0,0.0,-9.18,51.25,55.68
136.359899,0.0,0.15,-9.77,0.0,0.0,0.0,-9.56,51.56,54.18
136.379766,0.01,0.19,-9.77,0.0,0.0,0.0,-8.75,50.5,54.87
136.403947,0.01,0.18,-9.82,0.0,0.0,0.0,-8.75,50.5,54.87
136.423961,0.01,0.18,-9.8,0.0,0.0,0.0,-8.75,50.5,54.87
136.447984,0.0,0.17,-9.76,0.0,0.0,0.0,-9.56,51.56,54.56
136.475921,0.0,0.17,-9.77,0.0,0.0,0.0,-9.56,51.56,54.56
136.49191,0.0,0.17,-9.77,0.0,0.0,0.0,-10.25,50.5,54.87
136.515964,0.02,0.22,-9.77,0.0,0.0,0.0,-10.25,50.5,54.87
136.539975,0.0,0.17,-9.77,0.0,0.0,0.0,-10.25,50.5,54.87
136.559924,0.01,0.16,-9.76,0.0,0.0,0.0,-10.25,51.25,53.68
136.583917,0.0,0.16,-9.78,0.0,0.0,0.0,-10.25,51.25,53.68
136.603962,0.0,0.17,-9.77,0.0,0.0,0.0,-8.75,50.87,54.56
136.627965,0.01,0.18,-9.78,0.0,0.0,0.0,-8.75,50.87,54.56
136.651928,0.0,0.19,-9.78,0.0,0.0,0.0,-8.75,50.87,54.56
136.671916,0.01,0.21,-9.77,0.0,0.0,0.0,-9.18,51.25,54.18
136.695923,0.0,0.17,-9.82,0.0,0.0,0.0,-9.18,51.25,54.18
136.719912,0.0,0.15,-9.77,0.0,0.0,0.0,-9.56,51.25,54.18
136.739968,0.0,0.17,-9.8,0.0,0.0,0.0,-9.56,51.25,54.18
136.763963,0.02,0.16,-9.77,0.0,0.0,0.0,-9.56,51.25,54.18
136.783914,0.01,0.18,-9.77,0.0,0.0,0.0,-9.56,52.0,54.56
136.808017,-0.02,0.2,-9.77,0.0,0.0,0.0,-9.56,52.0,54.56
136.831949,-0.01,0.17,-9.77,0.0,0.0,0.0,-9.56,50.87,54.87
136.851773,0.0,0.15,-9.78,0.0,0.0,0.0,-9.56,50.87,54.87
136.875976,0.0,0.18,-9.8,0.0,0.0,0.0,-9.56,50.87,54.87
136.899916,0.0,0.16,-9.8,0.0,0.0,0.0,-9.56,51.25,54.87
136.919955,0.01,0.16,-9.77,0.0,0.0,0.0,-9.56,51.25,54.87
136.943934,0.01,0.18,-9.76,0.0,0.0,0.0,-9.87,51.56,53.37
136.963919,0.0,0.18,-9.77,0.0,0.0,0.0,-9.87,51.56,53.37
136.987916,0.0,0.18,-9.75,0.0,0.0,0.0,-9.87,51.25,54.18
137.011774,0.0,0.19,-9.77,0.0,0.0,0.0,-9.87,51.25,54.18
137.031926,0.0,0.15,-9.77,0.0,0.0,0.0,-9.87,51.25,54.18
137.055918,0.02,0.16,-9.76,0.0,0.0,0.0,-8.75,51.25,53.37
137.079979,0.01,0.16,-9.8,0.0,0.0,0.0,-8.75,51.25,53.37
137.099972,0.0,0.16,-9.76,0.0,0.0,0.0,-9.56,51.25,54.56
137.123969,-0.01,0.19,-9.77,0.0,0.0,0.0,-9.56,51.25,54.56
137.147946,0.0,0.17,-9.77,0.0,0.0,0.0,-9.56,51.25,54.56
137.167832,0.0,0.19,-9.77,0.0,0.0,0.0,-9.18,51.56,54.18
137.191925,0.01,0.15,-9.77,0.0,0.0,0.0,-9.18,51.56,54.18
137.211869,0.02,0.15,-9.78,0.0,0.0,0.0,-9.56,51.25,54.18
137.235918,0.0,0.19,-9.78,0.0,0.0,0.0,-9.56,51.25,54.18
137.267969,0.0,0.18,-9.76,0.0,0.0,0.0,-9.56,51.25,54.18
137.291913,0.02,0.19,-9.77,0.0,0.0,0.0,-9.56,52.0,54.56
137.31595,0.02,0.19,-9.77,0.0,0.0,0.0,-9.56,52.0,54.56
137.33572,0.01,0.18,-9.77,0.0,0.0,0.0,-9.18,50.87,54.56
137.359768,0.0,0.19,-9.81,0.0,0.0,0.0,-9.18,51.25,54.18
137.383503,0.02,0.16,-9.77,0.0,0.0,0.0,-9.18,51.25,54.87
137.403585,0.01,0.16,-9.8,0.0,0.0,0.0,-9.18,51.25,54.87
137.427679,0.0,0.19,-9.77,0.0,0.0,0.0,-9.18,51.25,54.87
137.447803,-0.01,0.18,-9.76,0.0,0.0,0.0,-8.75,51.56,53.0
137.471754,0.0,0.19,-9.77,0.0,0.0,0.0,-8.75,51.56,53.0
137.495867,0.01,0.17,-9.77,0.0,0.0,0.0,-9.87,51.56,55.37
137.515853,0.0,0.18,-9.81,0.0,0.0,0.0,-9.87,51.56,55.37
137.539827,0.0,0.16,-9.78,0.0,0.0,0.0,-9.87,51.56,55.37
137.563884,0.0,0.17,-9.76,0.0,0.0,0.0,-9.56,51.56,53.68
137.583868,0.02,0.19,-9.76,0.0,0.0,0.0,-9.56,51.56,53.68
137.607869,0.01,0.17,-9.78,0.0,0.0,0.0,-9.18,51.25,54.18
137.631869,0.0,0.17,-9.78,0.0,0.0,0.0,-9.18,51.25,54.18
137.651877,0.02,0.18,-9.8,0.0,0.0,0.0,-9.56,52.37,55.68
137.675865,0.0,0.16,-9.77,0.0,0.0,0.0,-9.56,52.37,55.68
137.695936,0.0,0.18,-9.8,0.0,0.0,0.0,-9.56,52.37,55.68
137.719868,0.0,0.17,-9.77,0.0,0.0,0.0,-9.87,51.25,55.37
137.743859,0.01,0.2,-9.83,0.0,0.0,0.0,-9.87,51.25,55.37
137.763865,0.0,0.18,-9.78,0.0,0.0,0.0,-9.87,51.25,55.37
137.787872,-0.01,0.15,-9.8,0.0,0.0,0.0,-9.87,51.25,53.37
137.811917,0.0,0.16,-9.76,0.0,0.0,0.0,-9.87,51.25,53.37
137.83187,0.0,0.2,-9.77,0.0,0.0,0.0,-9.18,51.25,53.68
137.855909,0.03,0.2,-9.81,0.0,0.0,0.0,-9.18,51.25,53.68
137.875895,0.01,0.17,-9.77,0.0,0.0,0.0,-9.87,50.87,53.68
137.899878,0.01,0.17,-9.8,0.0,0.0,0.0,-9.87,50.87,53.68
137.923857,0.02,0.17,-9.77,0.0,0.0,0.0,-9.56,52.37,53.0
137.943866,0.01,0.17,-9.81,0.0,0.0,0.0,-9.56,52.37,53.0
137.967882,0.0,0.18,-9.75,0.0,0.0,0.0,-9.56,52.37,53.0
137.991886,0.01,0.17,-9.77,0.0,0.0,0.0,-9.87,51.25,54.87
138.011777,0.0,0.15,-9.78,0.0,0.0,0.0,-9.87,51.25,54.87
138.035815,0.02,0.17,-9.77,0.0,0.0,0.0,-9.87,52.0,53.37
138.055804,0.0,0.18,-9.77,0.0,0.0,0.0,-9.87,52.0,53.37
138.079758,0.0,0.19,-9.77,0.0,0.0,0.0,-9.87,52.0,53.37
138.103814,0.0,0.16,-9.77,0.0,0.0,0.0,-9.87,52.0,53.37
138.123797,0.0,0.17,-9.77,0.0,0.0,0.0,-9.87,52.0,53.37
138.147806,0.0,0.14,-9.8,0.0,0.0,0.0,-9.18,52.37,53.68
138.171801,0.02,0.16,-9.77,0.0,0.0,0.0,-9.18,52.37,53.68
138.191771,0.0,0.2,-9.78,0.0,0.0,0.0,-9.18,52.37,53.68
138.215912,0.0,0.18,-9.76,0.0,0.0,0.0,-9.18,51.25,53.37
138.236053,0.0,0.17,-9.78,0.0,0.0,0.0,-9.18,51.25,53.37
138.260015,0.02,0.15,-9.77,0.0,0.0,0.0,-9.87,51.56,54.56
138.283896,0.0,0.17,-9.78,0.0,0.0,0.0,-9.87,51.56,54.56
138.3039,0.01,0.17,-9.76,0.0,0.0,0.0,-9.87,51.56,54.56
138.32785,0.0,0.19,-9.77,0.0,0.0,0.0,-9.87,50.06,54.87
138.351856,0.0,0.17,-9.8,0.0,0.0,0.0,-9.87,50.06,54.87
138.371812,0.03,0.16,-9.78,0.0,0.0,0.0,-9.18,51.56,53.68
138.39576,0.01,0.19,-9.8,0.0,0.0,0.0,-9.18,51.56,53.68
138.415802,0.0,0.18,-9.78,0.0,0.0,0.0,-9.87,51.56,54.56
138.439899,0.02,0.17,-9.78,0.0,0.0,0.0,-9.87,51.56,54.56
138.463885,0.01,0.18,-9.78,0.0,0.0,0.0,-9.87,51.56,54.56
138.495866,0.0,0.17,-9.75,0.0,0.0,0.0,-9.87,52.0,54.18
138.5199,0.0,0.2,-9.77,0.0,0.0,0.0,-9.87,52.0,54.18
138.539899,0.01,0.18,-9.77,0.0,0.0,0.0,-9.18,51.56,53.68
138.56387,0.0,0.18,-9.83,0.0,0.0,0.0,-9.18,51.56,53.68
138.587905,0.0,0.17,-9.77,0.0,0.0,0.0,-9.18,51.56,53.68
138.607858,0.01,0.15,-9.77,0.0,0.0,0.0,-9.56,50.5,54.56
138.631857,0.0,0.19,-9.77,0.0,0.0,0.0,-9.56,50.5,54.56
138.655884,0.01,0.18,-9.77,0.0,0.0,0.0,-9.87,51.56,54.18
138.675879,0.01,0.15,-9.77,0.0,0.0,0.0,-9.87,51.56,54.18
138.699904,0.01,0.18,-9.77,0.0,0.0,0.0,-9.87,51.56,54.18
138.719892,0.02,0.17,-9.77,0.0,0.0,0.0,-9.56,51.56,54.18
138.743861,0.0,0.18,-9.78,0.0,0.0,0.0,-9.56,51.56,54.18
138.767899,0.0,0.17,-9.78,0.0,0.0,0.0,-9.56,51.56,54.18
138.787806,0.0,0.19,-9.77,0.0,0.0,0.0,-9.56,51.56,54.18
138.811778,0.03,0.19,-9.77,0.0,0.0,0.0,-9.56,51.56,54.18
138.835892,0.0,0.15,-9.8,0.0,0.0,0.0,-9.87,51.25,54.87
138.855775,0.0,0.17,-9.76,0.0,0.0,0.0,-9.87,51.25,54.87
138.879778,0.0,0.17,-9.77,0.0,0.0,0.0,-10.25,51.25,53.37
138.899814,0.01,0.19,-9.77,0.0,0.0,0.0,-10.25,51.25,53.37
138.923801,0.0,0.16,-9.77,0.0,0.0,0.0,-9.56,51.25,54.18
138.947866,0.01,0.17,-9.77,0.0,0.0,0.0,-9.56,51.25,54.18
138.967803,0.0,0.17,-9.77,0.0,0.0,0.0,-9.56,51.25,54.18
138.991768,0.04,0.17,-9.78,0.0,0.0,0.0,-9.87,50.87,54.87
139.0159,0.0,0.17,-9.77,0.0,0.0,0.0,-9.87,50.87,54.87
139.035836,0.0,0.19,-9.77,0.0,0.0,0.0,-9.56,52.0,54.56
139.059775,0.0,0.17,-9.78,0.0,0.0,0.0,-9.56,52.0,54.56
139.079801,0.0,0.16,-9.78,0.0,0.0,0.0,-9.56,52.0,54.56
139.103901,0.02,0.14,-9.8,0.0,0.0,0.0,-9.56,50.5,53.37
139.127864,0.01,0.17,-9.77,0.0,0.0,0.0,-9.56,50.5,53.37
139.147899,0.0,0.17,-9.74,0.0,0.0,0.0,-9.56,51.56,53.68
139.171873,0.0,0.17,-9.8,0.0,0.0,0.0,-9.56,51.56,53.68
139.19591,0.01,0.18,-9.76,0.0,0.0,0.0,-9.56,51.56,53.68
139.215796,0.0,0.19,-9.76,0.0,0.0,0.0,-9.56,51.25,54.18
139.23979,0.01,0.19,-9.76,0.0,0.0,0.0,-9.56,51.25,54.18
139.263951,0.01,0.16,-9.8,0.0,0.0,0.0,-9.56,51.56,54.18
139.283897,0.0,0.18,-9.77,0.0,0.0,0.0,-9.56,51.56,54.18
139.307887,0.0,0.17,-9.77,0.0,0.0,0.0,-9.56,51.56,54.18
139.327864,0.01,0.17,-9.77,0.0,0.0,0.0,-8.75,51.25,54.87
139.351759,0.0,0.17,-9.77,0.0,0.0,0.0,-8.75,51.25,54.87
139.375759,0.0,0.18,-9.81,0.0,0.0,0.0,-10.25,52.0,55.37
139.395766,0.0,0.16,-9.77,0.0,0.0,0.0,-10.25,52.0,55.37
139.41982,0.0,0.18,-9.77,0.0,0.0,0.0,-10.25,52.0,54.87
139.443794,0.02,0.18,-9.77,0.0,0.0,0.0,-10.25,52.0,54.87
139.463782,0.0,0.18,-9.75,0.0,0.0,0.0,-10.25,52.0,54.87
139.487778,0.01,0.18,-9.77,0.0,0.0,0.0,-9.87,51.25,54.87
139.507637,0.0,0.17,-9.77,0.0,0.0,0.0,-9.87,51.25,54.87
139.531874,0.0,0.16,-9.77,0.0,0.0,0.0,-9.87,52.0,55.37
139.555773,0.0,0.18,-9.8,0.0,0.0,0.0,-9.87,52.0,55.37
139.575758,0.0,0.2,-9.77,0.0,0.0,0.0,-9.87,52.0,55.37
139.59977,0.01,0.19,-9.77,0.0,0.0,0.0,-9.18,50.87,54.56
139.623763,0.01,0.17,-9.78,0.0,0.0,0.0,-9.18,50.87,54.56
139.643763,0.0,0.19,-9.78,0.0,0.0,0.0,-9.87,52.0,53.68
139.667763,0.01,0.17,-9.82,0.0,0.0,0.0,-9.87,52.0,53.68
139.687733,0.02,0.15,-9.75,0.0,0.0,0.0,-9.87,52.0,53.68
139.711756,0.02,0.18,-9.77,0.0,0.0,0.0,-8.75,51.25,54.87
139.735879,0.0,0.19,-9.77,0.0,0.0,0.0,-8.75,51.25,54.87
139.755861,0.0,0.2,-9.77,0.0,0.0,0.0,-9.56,51.56,54.56
139.779863,0.01,0.18,-9.8,0.0,0.0,0.0,-9.56,51.56,54.56
139.803858,0.0,0.18,-9.78,0.0,0.0,0.0,-9.56,51.56,54.56
139.823861,0.0,0.17,-9.77,0.0,0.0,0.0,-9.18,51.56,54.56
139.84789,0.01,0.16,-9.78,0.0,0.0,0.0,-9.18,51.56,54.56
139.867819,0.01,0.19,-9.77,0.0,0.0,0.0,-9.18,52.0,53.68
139.891912,0.01,0.18,-9.81,0.0,0.0,0.0,-9.18,52.0,53.68
139.915913,0.01,0.18,-9.77,0.0,0.0,0.0,-9.18,52.0,53.68
139.935929,0.0,0.19,-9.77,0.0,0.0,0.0,-9.56,51.56,54.56
139.959921,0.0,0.19,-9.8,0.0,0.0,0.0,-10.25,52.37,54.18
139.983949,0.0,0.19,-9.77,0.0,0.0,0.0,-9.56,50.5,54.56
140.003955,0.0,0.16,-9.78,0.0,0.0,0.0,-9.56,50.5,54.56
140.027905,0.0,0.15,-9.77,0.0,0.0,0.0,-9.56,51.25,54.18
140.047955,0.0,0.18,-9.8,0.0,0.0,0.0,-9.56,51.25,54.18
140.07195,0.0,0.17,-9.77,0.0,0.0,0.0,-9.56,51.25,54.18
140.095904,0.01,0.16,-9.8,0.0,0.0,0.0,-10.25,51.56,53.68
140.115873,0.0,0.2,-9.77,0.0,0.0,0.0,-10.25,51.56,53.68
140.139951,-0.01,0.16,-9.77,0.0,0.0,0.0,-9.18,51.25,54.56
140.16396,-0.01,0.15,-9.77,0.0,0.0,0.0,-9.18,51.25,54.56
140.183943,0.01,0.2,-9.76,0.0,0.0,0.0,-9.18,51.25,54.56
140.207813,0.01,0.19,-9.77,0.0,0.0,0.0,-9.18,51.25,54.18
140.231833,0.0,0.17,-9.77,0.0,0.0,0.0,-9.18,51.25,54.18
140.251945,0.02,0.16,-9.76,0.0,0.0,0.0,-9.18,51.25,54.56
140.2759,-0.02,0.18,-9.77,0.0,0.0,0.0,-9.18,51.25,54.56
140.295911,-0.01,0.17,-9.8,0.0,0.0,0.0,-9.18,51.25,54.56
140.319688,0.01,0.15,-9.77,0.0,0.0,0.0,-9.87,51.56,54.56
140.343816,0.01,0.17,-9.78,0.0,0.0,0.0,-9.87,51.56,54.56
140.363816,0.0,0.18,-9.77,0.0,0.0,0.0,-9.56,52.37,53.37
140.38786,0.0,0.17,-9.77,0.0,0.0,0.0,-9.56,52.37,53.37
140.411881,-0.01,0.17,-9.76,0.0,0.0,0.0,-9.56,52.37,53.37
140.431814,0.0,0.16,-9.75,0.0,0.0,0.0,-9.87,50.87,54.18
140.455949,0.0,0.17,-9.78,0.0,0.0,0.0,-9.87,50.87,54.18
140.47592,0.01,0.17,-9.77,0.0,0.0,0.0,-9.56,51.56,54.18
140.499957,0.01,0.15,-9.78,0.0,0.0,0.0,-9.18,51.25,54.56
140.523954,0.01,0.16,-9.77,0.0,0.0,0.0,-9.56,52.37,55.37
140.543904,0.0,0.2,-9.81,0.0,0.0,0.0,-9.56,52.37,55.37
140.567952,-0.01,0.2,-9.77,0.0,0.0,0.0,-9.56,52.37,55.37
140.591907,-0.02,0.18,-9.78,0.0,0.0,0.0,-9.18,51.25,54.18
140.611912,0.01,0.16,-9.77,0.0,0.0,0.0,-9.18,51.25,54.18
140.635958,0.02,0.2,-9.77,0.0,0.0,0.0,-8.75,50.87,54.18
140.655956,0.01,0.16,-9.77,0.0,0.0,0.0,-8.75,50.87,54.18
140.703581,0.0,0.19,-9.77,0.0,0.0,0.0,-8.75,50.87,54.18
140.735877,-0.01,0.19,-9.78,0.0,0.0,0.0,-10.25,50.87,53.0
140.759839,0.01,0.17,-9.78,0.0,0.0,0.0,-10.25,50.87,53.0
140.779767,0.01,0.16,-9.76,0.0,0.0,0.0,-9.56,52.0,53.37
140.803855,0.0,0.16,-9.81,0.0,0.0,0.0,-9.56,52.0,53.37
140.827817,0.0,0.16,-9.77,0.0,0.0,0.0,-9.56,52.0,53.37
140.847906,0.0,0.16,-9.8,0.0,0.0,0.0,-9.87,51.25,55.37
140.87188,0.01,0.17,-9.77,0.0,0.0,0.0,-9.87,51.25,55.37
140.895861,0.0,0.17,-9.77,0.0,0.0,0.0,-9.18,50.87,53.68
140.915845,-0.02,0.19,-9.77,0.0,0.0,0.0,-9.18,50.87,53.68
140.93983,0.02,0.18,-9.76,0.0,0.0,0.0,-9.56,51.56,53.68
140.959812,0.02,0.19,-9.81,0.0,0.0,0.0,-9.56,51.56,53.68
140.983848,0.01,0.17,-9.77,0.0,0.0,0.0,-9.56,51.56,53.68
141.007869,0.0,0.17,-9.77,0.0,0.0,0.0,-9.56,51.56,54.56
141.02781,-0.02,0.17,-9.76,0.0,0.0,0.0,-9.56,51.56,54.56
141.051858,0.0,0.18,-9.77,0.0,0.0,0.0,-9.18,51.56,54.56
141.075837,0.0,0.19,-9.77,0.0,0.0,0.0,-9.18,51.56,54.56
141.095818,0.01,0.18,-9.77,0.0,0.0,0.0,-9.18,51.56,54.56
141.119859,0.0,0.16,-9.76,0.0,0.0,0.0,-9.56,51.25,54.87
141.139923,0.01,0.17,-9.77,0.0,0.0,0.0,-9.56,51.25,54.87
141.163869,0.01,0.15,-9.74,0.0,0.0,0.0,-9.18,51.56,54.18
141.187855,0.01,0.17,-9.78,0.0,0.0,0.0,-9.18,51.56,54.18
141.207817,0.03,0.19,-9.77,0.0,0.0,0.0,-9.18,51.56,54.18
141.231813,0.0,0.18,-9.77,0.0,0.0,0.0,-10.25,50.87,53.0
141.255931,-0.01,0.2,-9.77,0.0,0.0,0.0,-10.25,50.87,53.0
141.275914,-0.02,0.19,-9.77,0.0,0.0,0.0,-9.56,51.25,54.56
141.299934,0.0,0.16,-9.78,0.0,0.0,0.0,-9.18,50.87,53.37
141.319607,0.0,0.19,-9.77,0.0,0.0,0.0,-9.56,51.25,54.18
141.343814,0.0,0.19,-9.78,0.0,0.0,0.0,-9.56,51.25,54.18
141.367843,0.03,0.2,-9.77,0.0,0.0,0.0,-9.56,51.25,54.18
141.387857,0.01,0.18,-9.77,0.0,0.0,0.0,-9.56,52.0,54.56
141.411802,0.01,0.18,-9.78,0.0,0.0,0.0,-9.56,52.0,54.56
141.43568,-0.01,0.17,-9.77,0.0,0.0,0.0,-9.56,51.25,53.68
141.455911,0.0,0.15,-9.82,0.0,0.0,0.0,-9.56,51.25,53.68
141.479918,0.01,0.16,-9.78,0.0,0.0,0.0,-9.56,51.25,53.68
141.503917,0.01,0.17,-9.81,0.0,0.0,0.0,-9.18,51.25,53.0
141.52391,0.01,0.2,-9.77,0.0,0.0,0.0,-9.18,51.25,53.0
141.559911,0.0,0.19,-9.77,0.0,0.0,0.0,-9.18,51.56,54.87
141.579921,0.0,0.17,-9.78,0.0,0.0,0.0,-9.18,51.56,54.87
141.603922,0.0,0.17,-9.77,0.0,0.0,0.0,-9.18,51.56,54.87
141.623932,0.01,0.17,-9.77,0.0,0.0,0.0,-9.56,51.56,53.68
141.647943,0.01,0.17,-9.77,0.0,0.0,0.0,-9.56,51.56,53.68
141.671915,0.0,0.17,-9.77,0.0,0.0,0.0,-9.56,51.25,54.56
141.691719,-0.01,0.19,-9.77,0.0,0.0,0.0,-9.56,51.25,54.56
141.71592,-0.01,0.16,-9.76,0.0,0.0,0.0,-9.56,51.25,54.56
141.739908,0.01,0.18,-9.77,0.0,0.0,0.0,-9.56,51.25,53.68
141.759881,-0.01,0.17,-9.76,0.0,0.0,0.0,-9.87,51.25,54.18
141.784005,0.0,0.18,-9.77,0.0,0.0,0.0,-9.18,51.25,54.18
141.804001,0.01,0.17,-9.77,0.0,0.0,0.0,-9.18,51.25,54.18
141.828026,0.01,0.15,-9.77,0.0,0.0,0.0,-9.56,51.25,54.56
141.851862,0.01,0.18,-9.77,0.0,0.0,0.0,-9.56,51.25,54.56
141.871928,-0.01,0.2,-9.77,0.0,0.0,0.0,-9.56,51.25,54.56
141.895903,0.0,0.18,-9.77,0.0,0.0,0.0,-9.87,52.0,53.68
141.919936,0.01,0.16,-9.76,0.0,0.0,0.0,-9.87,52.0,53.68
141.939946,0.03,0.17,-9.76,0.0,0.0,0.0,-10.68,52.0,54.18
141.963959,0.01,0.16,-9.8,0.0,0.0,0.0,-10.68,52.0,54.18
141.984007,0.0,0.16,-9.76,0.0,0.0,0.0,-10.68,52.0,54.18
142.008008,-0.01,0.18,-9.78,0.0,0.0,0.0,-9.56,51.25,54.56
142.032003,0.02,0.19,-9.77,0.0,0.0,0.0,-9.56,51.25,54.56
142.051997,0.0,0.18,-9.82,0.0,0.0,0.0,-9.56,51.25,54.18
142.076011,0.0,0.14,-9.77,0.0,0.0,0.0,-9.56,51.25,54.18
142.099916,0.0,0.16,-9.8,0.0,0.0,0.0,-9.56,51.25,54.18
142.119975,0.01,0.18,-9.75,0.0,0.0,0.0,-8.75,50.87,53.68
142.143921,0.01,0.2,-9.8,0.0,0.0,0.0,-8.75,50.87,53.68
142.168049,0.0,0.19,-9.78,0.0,0.0,0.0,-9.56,50.87,54.56
142.18805,-0.01,0.17,-9.77,0.0,0.0,0.0,-9.56,50.87,54.56
142.212011,0.0,0.17,-9.76,0.0,0.0,0.0,-9.56,50.87,54.56
142.232025,0.0,0.15,-9.81,0.0,0.0,0.0,-8.75,51.25,54.56
142.256045,0.01,0.17,-9.78,0.0,0.0,0.0,-8.75,51.25,54.56
142.280012,0.0,0.19,-9.8,0.0,0.0,0.0,-9.56,51.56,54.87
142.300007,0.01,0.17,-9.77,0.0,0.0,0.0,-9.56,51.56,54.56
142.323997,0.01,0.18,-9.78,0.0,0.0,0.0,-9.18,50.5,54.18
142.347968,0.0,0.17,-9.77,0.0,0.0,0.0,-9.18,50.5,54.18
142.3795,0.0,0.17,-9.78,0.0,0.0,0.0,-9.18,50.5,54.18
142.403752,0.01,0.18,-9.77,0.0,0.0,0.0,-9.18,50.87,54.56
142.423692,0.0,0.17,-9.77,0.0,0.0,0.0,-9.18,50.87,54.56
142.44793,0.0,0.17,-9.77,0.0,0.0,0.0,-8.75,51.56,54.18
142.467988,0.0,0.17,-9.77,0.0,0.0,0.0,-8.75,51.56,54.18
142.491926,0.0,0.19,-9.77,0.0,0.0,0.0,-9.56,52.37,54.18
142.515975,0.01,0.17,-9.77,0.0,0.0,0.0,-9.56,52.37,54.18
142.535966,0.01,0.18,-9.77,0.0,0.0,0.0,-9.56,52.37,54.18
142.559958,0.0,0.18,-9.75,0.0,0.0,0.0,-9.56,50.87,54.56
142.592011,0.0,0.17,-9.82,0.0,0.0,0.0,-9.56,50.87,54.56
142.616049,0.02,0.18,-9.77,0.0,0.0,0.0,-10.25,51.56,53.68
142.640054,-0.01,0.18,-9.78,0.0,0.0,0.0,-10.25,51.56,53.68
142.660021,0.0,0.21,-9.76,0.0,0.0,0.0,-10.25,51.56,53.68
142.683945,0.0,0.18,-9.78,0.0,0.0,0.0,-9.18,52.0,54.56
142.708039,0.0,0.2,-9.77,0.0,0.0,0.0,-9.18,52.0,54.56
142.728034,0.0,0.19,-9.78,0.0,0.0,0.0,-8.75,50.5,54.56
142.752048,0.01,0.17,-9.77,0.0,0.0,0.0,-8.75,50.5,54.56
142.776011,0.0,0.14,-9.8,0.0,0.0,0.0,-9.18,51.25,54.87
142.796009,0.01,0.17,-9.78,0.0,0.0,0.0,-9.18,51.25,54.87
142.819947,0.01,0.17,-9.77,0.0,0.0,0.0,-9.18,51.25,54.87
142.839812,0.0,0.19,-9.77,0.0,0.0,0.0,-9.87,51.56,55.37
142.863784,0.0,0.2,-9.8,0.0,0.0,0.0,-9.87,51.56,55.37
142.887904,0.0,0.19,-9.77,0.0,0.0,0.0,-9.56,51.56,54.87
142.90787,0.01,0.17,-9.77,0.0,0.0,0.0,-9.56,51.56,54.87
142.931863,0.0,0.19,-9.78,0.0,0.0,0.0,-9.56,51.56,54.87
142.955897,0.01,0.18,-9.76,0.0,0.0,0.0,-9.87,50.87,54.56
142.975877,-0.02,0.18,-9.8,0.0,0.0,0.0,-9.87,50.87,54.56
142.999914,-0.01,0.19,-9.77,0.0,0.0,0.0,-9.18,52.37,53.37
143.019915,0.01,0.17,-9.77,0.0,0.0,0.0,-9.18,52.37,53.37
143.043853,0.02,0.16,-9.77,0.0,0.0,0.0,-9.18,52.37,53.37
143.067904,0.02,0.15,-9.8,0.0,0.0,0.0,-9.56,52.0,54.18
143.087897,-0.01,0.15,-9.77,0.0,0.0,0.0,-9.56,52.0,54.18
143.111856,-0.01,0.19,-9.77,0.0,0.0,0.0,-9.56,51.56,55.68
143.135902,0.0,0.19,-9.77,0.0,0.0,0.0,-9.56,51.56,55.68
143.155853,0.03,0.16,-9.77,0.0,0.0,0.0,-9.56,51.56,55.68
143.17985,0.01,0.17,-9.78,0.0,0.0,0.0,-9.18,50.87,54.18
143.199901,0.02,0.19,-9.76,0.0,0.0,0.0,-9.56,52.37,54.18
143.223893,0.01,0.16,-9.81,0.0,0.0,0.0,-9.56,51.25,54.18
143.247905,0.0,0.15,-9.78,0.0,0.0,0.0,-9.56,51.25,54.18
143.267904,0.0,0.17,-9.83,0.0,0.0,0.0,-10.25,51.56,54.87
143.291859,0.01,0.19,-9.78,0.0,0.0,0.0,-10.25,51.56,54.87
143.315902,0.0,0.18,-9.78,0.0,0.0,0.0,-10.25,51.56,54.87
143.335903,0.02,0.17,-9.73,0.0,0.0,0.0,-9.18,50.06,53.37
143.359896,0.0,0.17,-9.74,0.0,0.0,0.0,-9.18,50.06,53.37
143.3798,0.0,0.15,-9.76,0.0,0.0,0.0,-9.56,51.56,54.56
143.40389,0.0,0.17,-9.76,0.0,0.0,0.0,-9.56,51.56,54.56
143.427858,-0.01,0.19,-9.78,0.0,0.0,0.0,-9.56,51.56,54.56
143.447875,0.02,0.2,-9.77,0.0,0.0,0.0,-9.18,50.87,53.68
143.471769,0.0,0.21,-9.8,0.0,0.0,0.0,-9.18,50.87,53.68
143.4958,0.0,0.16,-9.72,0.0,0.0,0.0,-9.87,52.0,53.37
143.515864,-0.02,0.16,-9.8,0.0,0.0,0.0,-9.87,52.0,53.37
143.539867,0.01,0.17,-9.75,0.0,0.0,0.0,-9.87,52.0,53.37
143.55987,0.01,0.18,-9.77,0.0,0.0,0.0,-9.18,51.25,54.87
143.583866,0.01,0.18,-9.78,0.0,0.0,0.0,-9.18,51.25,54.87
143.619854,0.0,0.18,-9.78,0.0,0.0,0.0,-9.56,52.0,53.68
143.639858,0.0,0.16,-9.78,0.0,0.0,0.0,-9.56,52.0,53.68
143.663872,0.0,0.16,-9.77,0.0,0.0,0.0,-9.56,52.0,53.68
143.683874,-0.01,0.17,-9.8,0.0,0.0,0.0,-9.87,51.25,53.68
143.707865,-0.01,0.16,-9.77,0.0,0.0,0.0,-8.75,51.56,53.68
143.73186,0.0,0.17,-9.8,0.0,0.0,0.0,-9.87,51.25,54.56
143.751855,0.0,0.18,-9.77,0.0,0.0,0.0,-9.87,51.25,54.56
143.775849,0.01,0.18,-9.8,0.0,0.0,0.0,-9.87,51.56,54.56
143.799854,0.0,0.2,-9.8,0.0,0.0,0.0,-9.87,51.56,54.56
143.819855,0.0,0.17,-9.77,0.0,0.0,0.0,-9.87,51.56,54.56
143.843792,0.0,0.19,-9.77,0.0,0.0,0.0,-9.18,51.56,54.18
143.86377,0.01,0.16,-9.78,0.0,0.0,0.0,-9.18,51.56,54.18
143.887774,0.01,0.18,-9.78,0.0,0.0,0.0,-9.56,52.37,53.68
143.911769,0.03,0.17,-9.8,0.0,0.0,0.0,-9.56,52.37,53.68
143.931769,0.0,0.16,-9.77,0.0,0.0,0.0,-9.56,52.37,53.68
143.95581,0.0,0.16,-9.77,0.0,0.0,0.0,-8.75,50.87,54.56
143.979805,0.0,0.15,-9.77,0.0,0.0,0.0,-8.75,50.87,54.56
143.999912,0.0,0.18,-9.77,0.0,0.0,0.0,-9.18,52.0,54.18
144.023911,0.02,0.17,-9.83,0.0,0.0,0.0,-9.18,52.0,54.18
144.043855,0.01,0.18,-9.78,0.0,0.0,0.0,-9.18,52.0,54.18
144.067862,0.0,0.19,-9.73,0.0,0.0,0.0,-9.18,50.87,53.68
144.091863,-0.04,0.2,-9.89,0.0,0.0,0.0,-9.18,50.87,53.68
144.111862,0.01,0.14,-9.73,0.0,0.0,0.0,-9.56,51.56,54.18
144.135895,0.12,0.56,-9.98,0.0,0.0,0.0,-9.56,51.56,54.18
144.159865,-6.9,-1.67,-9.11,-0.08,-0.07,-0.84,-9.56,51.56,54.18
144.179854,2.8,0.7,-9.16,-1.39,-1.69,-4.01,-10.25,51.68,54.87
144.203892,-3.22,-2.54,-8.75,-0.91,-1.39,-2.66,-10.25,51.68,54.87
144.223902,-7.02,0.59,-5.71,-0.08,-1.08,-2.19,-12.87,47.56,55.25
144.247916,-4.25,-2.86,-9.67,-0.65,-2.28,-2.03,-12.87,47.56,55.25
144.271894,-4.09,0.95,-9.47,-0.33,-1.95,-2.26,-14.75,45.06,59.18
144.291867,-3.22,1.02,-8.6,-0.37,-1.94,-2.27,-14.75,45.06,59.18
144.315905,-0.8,1.22,-8.67,2.15,-1.0,-2.36,-14.75,45.06,59.18
144.33985,-3.13,0.88,-3.72,0.85,0.25,-0.76,-13.75,40.75,60.25
144.360066,-1.18,0.7,-9.21,-0.19,-0.21,-0.8,-13.75,40.75,60.25
144.38401,-1.85,-1.4,-9.86,-0.02,0.34,-0.12,-14.0,42.0,62.25
144.408015,-1.38,-1.2,-9.05,0.71,0.99,0.37,-14.0,42.0,62.25
144.427995,-0.6,0.61,-3.86,2.16,1.83,0.46,-14.0,42.0,62.25
144.452007,-1.45,0.52,-10.29,-1.27,2.71,0.89,-13.87,40.5,61.75
144.472044,-3.83,3.58,-8.81,-0.52,3.92,1.08,-13.87,40.5,61.75
144.495998,1.21,-1.37,-13.12,-1.29,2.82,0.77,-16.06,42.37,59.87
144.520056,-0.46,-2.99,-9.77,-0.07,-0.09,0.58,-16.06,42.37,59.87
144.540052,-0.04,0.23,-10.17,-0.04,-0.04,0.65,-16.06,42.37,59.87
144.564027,2.5,1.55,-9.6,0.09,-0.05,0.42,-18.37,41.5,58.18
144.596045,3.3,1.47,-10.22,-0.16,-0.25,0.75,-18.37,41.5,58.18
144.620049,4.76,1.48,-6.62,0.07,0.11,1.25,-18.06,42.56,57.87
144.643485,1.99,2.49,-9.59,0.16,0.29,2.49,-18.06,42.56,57.87
144.663799,-0.8,-1.03,-10.31,0.02,0.12,1.81,-18.06,42.56,57.87
144.68787,0.49,0.93,-9.44,-0.06,-0.08,0.64,-12.75,44.75,57.87
144.707891,-0.03,0.33,-9.36,0.0,0.02,0.1,-12.75,44.75,57.87
144.731917,0.46,0.03,-10.43,0.0,0.04,0.0,-12.06,45.18,57.0
144.755941,0.53,-0.02,-9.77,0.01,0.0,0.0,-12.06,45.18,57.0
144.77588,0.0,0.03,-10.08,0.0,-0.01,0.0,-11.25,45.87,58.5
144.799912,-0.22,0.14,-9.36,0.0,-0.03,0.0,-11.25,45.87,58.5
144.823954,-0.41,0.43,-9.71,0.0,0.0,0.0,-11.25,45.87,58.5
144.843677,-0.15,0.51,-9.63,0.0,0.02,0.0,-12.06,44.37,58.06
144.867935,0.41,0.28,-10.11,0.0,0.03,0.0,-12.06,44.37,58.06
144.891908,-5.0,-4.03,-10.63,0.08,0.01,0.05,-11.25,45.87,58.5
144.911883,-3.79,-1.46,-10.28,0.0,0.01,1.53,-11.25,45.87,58.5
144.935935,-2.4,6.66,-8.67,0.11,-0.13,-0.3,-11.25,45.87,58.5
144.959824,-5.84,-2.54,-8.71,0.01,-0.04,-0.32,-10.87,45.18,56.5
144.979784,-4.17,-3.49,-9.74,-0.14,-0.06,-1.81,-10.87,45.18,56.5
145.003934,-2.84,-5.2,-9.72,-0.43,-0.33,-1.26,-10.75,45.56,57.68
145.023858,0.85,-4.2,-9.81,-0.3,-0.54,-0.21,-10.75,45.56,57.68
145.047941,0.4,0.12,-12.15,-0.81,-1.94,1.02,-10.75,45.56,57.68
145.071934,3.61,6.26,-19.34,-1.4,-2.75,0.87,-12.0,44.5,58.0
145.091985,0.17,8.61,-12.41,0.47,-1.44,-0.05,-12.0,44.5,58.0
145.116026,3.07,8.33,-9.82,-0.43,-2.33,-1.94,-8.18,43.25,62.0
145.135953,1.36,7.44,-10.3,-1.42,-2.06,-3.07,-8.18,43.25,62.0
145.159973,-0.24,3.04,-13.09,-1.61,-2.72,-4.32,-8.18,43.25,62.0
145.183964,-2.68,-0.69,-1.18,-1.26,0.5,-0.56,-5.37,36.37,66.75
145.204046,1.32,1.04,-5.36,-1.89,1.79,-0.08,-5.37,36.37,66.75
145.227984,-0.65,3.97,-6.17,-0.81,2.11,0.39,-3.18,32.0,68.06
145.252021,-3.95,2.61,-10.68,-0.38,1.96,0.47,-3.18,32.0,68.06
145.272005,-2.13,0.0,-7.48,-0.42,0.61,0.68,-8.0,30.18,69.25
145.296024,-2.59,1.32,-6.18,0.0,0.84,1.48,-8.0,30.18,69.25
145.315992,-4.23,1.26,-6.61,-0.26,0.47,1.23,-8.0,30.18,69.25
145.33992,-5.78,-0.39,-11.05,0.28,0.88,0.4,-10.87,28.68,68.25
145.363886,-6.4,-0.9,-14.15,1.13,-0.27,-0.45,-10.87,28.68,68.25
145.383925,-4.3,0.74,-9.61,1.29,-0.9,-0.47,-10.87,29.75,67.75
145.407814,-3.83,3.48,-9.83,0.7,-0.57,-0.4,-10.87,29.75,67.75
145.431741,-5.82,3.98,-13.22,0.77,-0.79,-1.05,-10.87,29.75,67.75
145.451782,-4.53,3.5,-9.55,1.03,-1.4,-1.97,-10.56,32.06,65.75
145.475974,-2.49,2.23,-8.07,0.0,-1.1,-2.11,-10.56,32.06,65.75
145.49589,-2.95,0.06,-9.57,-0.04,-0.8,-1.5,-10.18,33.18,66.25
145.519983,-6.08,-2.08,-12.56,0.65,-0.93,-1.83,-10.18,33.18,66.25
145.543998,-5.07,2.78,-8.48,1.85,-1.9,-2.1,-10.18,33.18,66.25
145.563993,-4.76,-1.91,-6.92,0.88,-1.44,-1.18,-10.18,30.87,66.25
145.587985,-6.56,-2.42,-11.11,0.16,-1.37,-0.93,-10.18,30.87,66.25
145.612003,-5.88,0.24,-8.8,0.31,-2.09,-1.16,-8.25,32.75,66.18
145.631991,-5.98,0.95,-6.87,-0.21,-1.76,-0.87,-8.25,32.75,66.18
145.655987,-6.67,0.38,-10.01,-0.97,-1.21,-0.94,-8.25,32.75,66.18
145.675997,-2.82,1.31,-6.36,-1.23,0.15,-0.39,-4.75,32.37,66.68
145.69999,-3.12,-0.71,-6.95,-1.44,-0.54,0.5,-4.75,32.37,66.68
145.723995,-4.15,-0.23,-4.63,0.37,0.15,0.05,-2.37,28.0,68.0
145.74398,-2.42,-1.41,-2.99,-0.24,0.73,0.34,-2.37,28.0,68.0
145.767979,-1.03,-2.27,-2.02,-0.63,1.7,1.17,-2.75,30.68,67.87
145.791987,-1.53,-2.71,-4.49,-1.03,2.6,2.48,-2.75,30.68,67.87
145.81186,-5.09,-0.55,-11.32,-0.69,2.62,3.35,-2.75,30.68,67.87
145.835906,-6.53,-1.1,-14.14,-0.35,1.67,3.9,-5.0,29.5,67.0
145.859776,-4.95,0.22,-10.89,0.27,1.04,4.54,-5.0,29.5,67.0
145.879752,-2.2,3.37,-9.22,5.16,7.43,4.29,-8.56,30.25,66.18
145.903767,-5.45,6.96,-8.74,3.96,7.67,3.21,-8.56,30.25,66.18
145.923865,-0.96,3.3,-13.53,-0.27,3.73,1.46,-8.56,30.25,66.18
145.947788,-2.73,1.09,-9.5,0.24,0.79,0.53,-11.68,36.68,61.06
145.971775,-1.14,-0.09,-10.25,0.29,0.51,-0.23,-11.68,36.68,61.06
145.991839,-0.76,-1.28,-9.52,0.24,0.06,-0.53,-17.68,42.25,55.18
146.01579,2.29,-2.75,-9.77,0.01,-0.02,0.06,-17.68,42.25,55.18
146.03978,0.75,-1.69,-9.86,0.08,-0.04,1.29,-17.68,42.25,55.18
146.059738,-2.69,-2.06,-9.76,0.05,-0.18,1.62,-18.56,41.25,55.5
146.083739,-0.42,-1.57,-10.47,0.17,0.01,1.81,-18.56,41.25,55.5
146.103775,0.46,-1.19,-9.77,0.07,0.02,1.73,-16.25,42.87,54.68
146.127829,1.28,0.88,-9.78,-0.01,0.03,1.49,-16.25,42.87,54.68
146.151733,1.85,1.1,-9.61,0.0,0.11,0.93,-16.25,42.87,54.68
146.171774,2.65,1.84,-9.85,0.03,0.09,0.85,-14.18,44.0,54.5
146.195754,2.58,1.73,-9.99,0.14,-0.15,0.93,-14.18,44.0,54.5
146.219869,1.84,1.26,-9.48,0.07,-0.02,0.88,-12.56,46.25,54.0
146.2398,0.78,0.37,-9.51,0.06,0.02,0.77,-12.56,46.25,54.0
146.263878,-0.21,0.21,-9.76,0.0,0.01,0.42,-9.18,47.0,54.0
146.283832,2.22,-0.02,-9.96,0.01,0.06,0.81,-9.18,47.0,54.0
146.307905,3.6,1.04,-9.71,0.0,0.03,1.48,-9.18,47.0,54.0
146.331829,8.27,2.09,-10.06,0.02,0.02,1.26,-9.18,47.0,54.75
146.351735,9.75,2.64,-10.23,-0.01,0.03,0.96,-9.18,47.0,54.75
146.375867,12.33,4.01,-9.23,-0.02,0.01,0.28,-6.56,48.5,55.18
146.399835,12.48,4.9,-11.07,0.01,-0.04,-0.48,-6.56,48.5,55.18
146.419882,11.06,3.37,-10.27,0.12,-0.1,-1.6,-6.56,48.5,55.18
146.443839,10.03,4.12,-9.93,0.02,0.04,-2.25,-5.06,48.0,55.18
146.475793,4.7,1.53,-9.78,-0.2,-0.08,-2.7,-5.06,48.0,55.18
146.499866,0.93,-1.47,-9.42,-0.03,-0.08,-3.56,-8.75,48.0,53.68
146.523886,-5.56,-7.04,-9.55,0.01,0.02,-3.85,-8.75,48.0,53.68
146.54383,-9.11,-9.31,-9.61,-0.1,-0.03,-3.86,-8.75,48.0,53.68
146.56788,-12.58,-13.07,-9.48,0.11,-0.03,-2.93,-15.18,45.75,52.75
146.587871,-13.3,-15.09,-8.69,0.0,-0.03,-1.73,-15.18,45.75,52.75
146.611831,-10.55,-15.37,-9.49,-0.09,-0.06,-0.38,-22.25,43.87,50.06
146.635875,-10.87,-14.03,-9.43,-0.06,0.05,1.19,-22.25,43.87,50.06
146.655874,-8.19,-12.65,-9.72,-0.07,0.12,2.0,-22.25,43.87,50.06
146.6799,-5.87,-9.17,-9.86,-0.13,0.08,2.76,-24.87,42.0,49.75
146.703857,9.64,7.7,-10.11,0.03,0.0,2.96,-21.18,45.0,49.37
146.723885,14.32,15.71,-9.93,0.06,-0.04,2.01,-15.56,46.87,51.25
146.747906,14.88,16.07,-10.03,0.08,-0.04,0.74,-15.56,46.87,51.25
146.767883,18.17,14.09,-10.31,0.01,-0.14,-0.9,-11.37,49.18,52.5
146.79183,19.39,14.14,-9.88,0.03,-0.16,-1.8,-11.37,49.18,52.5
146.81586,15.01,8.32,-10.28,-0.03,-0.03,-1.51,-11.37,49.18,52.5
146.835795,13.53,3.32,-9.11,0.18,0.13,-2.01,-12.56,47.87,50.87
146.85997,7.0,-1.67,-10.15,-0.03,-0.01,-2.15,-12.56,47.87,50.87
146.883848,-0.48,-3.31,-8.97,-0.04,-0.03,-1.79,-18.87,48.56,50.06
146.90385,-6.32,-4.98,-9.03,0.01,-0.07,-2.26,-18.87,48.56,50.06
146.92789,-9.31,-5.97,-10.22,-0.05,-0.08,-2.71,-18.87,48.56,50.06
146.947901,-12.78,-8.99,-9.61,-0.05,-0.02,-2.25,-29.25,46.25,39.5
146.971819,-13.84,-8.0,-8.6,-0.05,-0.02,-0.97,-29.25,46.25,39.5
146.99594,-10.57,-4.87,-9.78,-0.01,-0.01,0.73,-34.87,46.37,3.37
147.015733,-6.59,0.98,-9.74,0.0,0.01,2.26,-34.87,46.37,3.37
147.039895,-3.89,1.81,-9.78,0.01,0.02,1.92,-34.87,46.37,3.37
147.063891,-2.64,0.26,-9.84,0.0,0.03,0.64,-1.18,51.37,-12.56
147.083728,-2.75,-1.15,-9.84,0.02,0.02,0.07,-1.18,51.37,-12.56
147.107752,-0.39,-0.74,-9.8,-0.02,-0.04,0.17,7.37,52.18,-11.5
147.127719,2.37,2.31,-10.13,0.0,-0.03,-0.19,7.37,52.18,-11.5
147.151764,1.95,2.04,-9.81,0.02,0.08,-0.55,7.37,52.18,-11.5
147.175736,-1.0,0.71,-9.47,0.04,0.04,-0.59,0.68,51.0,-13.75
147.195834,-7.51,2.91,-15.36,-1.42,1.4,0.36,0.68,51.0,-13.75
147.21976,-8.07,-0.55,-10.23,-2.41,1.48,0.16,-7.56,51.0,-12.25
147.243834,-6.33,3.44,-8.28,-0.35,-1.11,0.73,-15.37,52.87,-2.25
147.263692,-2.62,4.3,-7.16,0.2,-1.39,0.39,-30.25,48.75,29.0
147.287892,-0.36,2.87,-10.11,-0.03,-1.22,0.41,-30.25,48.75,29.0
147.307839,0.3,0.15,-6.4,-0.39,-0.86,0.89,-30.25,48.75,29.0
147.331882,2.27,0.77,-6.74,-1.44,0.16,2.27,-21.68,43.87,49.18
147.355754,4.29,2.69,-5.75,-1.39,1.0,2.04,-21.68,43.87,49.18
147.378183,5.7,4.36,-7.52,-0.79,0.87,1.34,-13.75,42.75,56.75
147.399667,3.31,1.02,-13.76,0.35,-0.1,-0.35,-13.75,42.75,56.75
147.42411,2.7,-0.23,-13.05,0.59,-0.46,-0.69,-13.75,42.75,56.75
147.444096,5.25,-1.25,-9.63,0.4,-0.68,-0.48,-9.75,41.5,58.87
147.46771,6.35,-1.36,-7.94,0.1,0.1,-0.11,-9.75,41.5,58.87
147.491789,6.39,-2.96,-6.42,0.08,0.49,0.01,-8.75,41.75,59.5
147.511791,6.1,-3.33,-5.71,1.92,-0.18,-0.5,-8.75,41.75,59.5
147.535795,4.26,1.77,-13.05,6.15,1.82,-0.32,-8.75,41.75,59.5
147.555778,3.45,-2.59,-9.76,-0.19,-0.12,1.19,-9.5,41.56,59.56
147.579792,4.22,0.06,-9.94,0.08,0.13,1.44,-9.5,41.56,59.56
147.603741,1.83,-1.2,-9.86,0.03,0.09,1.56,-9.87,46.87,53.25
147.623733,1.66,-0.27,-9.63,-0.04,0.01,0.8,-9.87,46.87,53.25
147.647738,2.02,0.78,-9.5,0.03,0.01,0.25,-9.87,46.87,53.25
147.671813,-0.09,0.49,-9.89,0.08,0.01,0.12,-8.06,47.56,53.25
147.691725,0.28,0.2,-9.94,0.09,0.04,0.1,-8.06,47.56,53.25
147.715745,-1.0,0.54,-9.89,0.03,0.02,0.41,-6.87,47.87,54.0
147.735721,-0.83,-0.48,-9.85,0.0,-0.02,0.63,-6.87,47.87,54.0
147.759742,-0.85,-0.03,-9.77,0.01,0.0,0.41,-6.87,47.87,54.0
147.783723,1.24,1.5,-9.88,0.02,0.0,-0.86,-6.06,48.87,53.68
147.803735,-0.22,0.49,-9.56,0.08,0.0,-0.53,-8.0,46.87,54.06
147.827744,0.33,0.63,-9.61,0.0,-0.01,-0.51,-8.0,46.87,54.06
147.851657,-0.47,-0.64,-9.59,-0.06,-0.08,-0.62,-8.0,46.87,54.06
147.871648,0.33,0.54,-9.93,-0.08,-0.1,-1.07,-9.0,46.87,52.75
147.895644,-0.3,0.01,-10.19,-0.03,-0.05,-1.36,-9.0,46.87,52.75
147.915653,0.15,0.63,-9.59,-0.02,-0.05,-0.82,-10.75,46.5,53.25
147.940495,0.75,0.08,-9.94,-0.11,-0.07,-0.18,-10.75,46.5,53.25
147.963774,0.22,0.17,-9.77,0.04,0.03,0.0,-10.75,46.5,53.25
147.983772,0.13,0.21,-9.99,0.0,0.0,0.0,-11.56,45.75,53.56
148.00773,0.06,0.2,-9.77,0.0,0.0,0.0,-11.56,45.75,53.56
148.031773,0.12,0.13,-9.77,0.0,0.0,0.0,-11.56,45.75,52.75
148.051863,0.12,0.12,-9.81,0.0,0.0,0.0,-11.56,45.75,52.75
148.075889,0.12,0.15,-9.74,0.0,0.0,0.0,-11.56,45.75,52.75
148.095882,0.01,0.2,-9.76,0.0,0.0,0.0,-11.56,45.37,53.25
148.119937,0.01,0.26,-9.73,0.0,0.0,0.0,-11.56,45.37,53.25
148.143894,0.11,0.31,-9.86,0.0,0.0,0.0,-11.56,45.37,53.25
148.163929,0.13,0.23,-9.77,0.0,0.0,0.0,-11.56,45.37,53.25
148.187916,0.07,0.16,-9.89,0.0,0.0,0.0,-11.56,45.37,53.25
148.211876,-0.39,-0.19,-9.32,-0.01,0.0,0.0,-11.56,45.37,54.37
148.231923,6.92,6.39,-9.89,0.08,-0.04,0.1,-11.56,45.37,54.37
148.25592,0.03,0.35,-9.27,0.19,0.1,0.46,-10.87,46.18,53.56
148.279911,-0.34,0.74,-9.76,0.04,0.03,0.43,-10.87,46.18,53.56
148.299916,-0.34,1.75,-9.6,0.02,0.0,0.42,-10.87,46.18,53.56
148.32386,-1.47,-1.8,-9.97,0.01,0.0,-0.52,-10.87,46.75,53.87
148.343821,-0.54,-2.5,-9.81,-0.01,0.0,-0.66,-10.87,46.75,53.87
148.367829,-1.32,-2.47,-9.69,0.05,0.05,-0.39,-11.25,45.68,54.25
148.391836,-0.05,-0.52,-9.59,0.04,0.03,-0.36,-11.25,45.68,54.25
148.411959,0.87,2.5,-9.84,-0.07,-0.04,-0.39,-12.37,45.25,53.87
148.436453,1.03,0.65,-10.05,-0.03,0.0,-0.79,-12.37,45.25,53.87
148.459822,-1.97,-2.23,-9.58,0.07,0.07,-0.83,-12.37,45.25,53.87
148.479912,-1.31,-0.7,-9.67,0.07,0.07,-0.96,-12.75,44.87,53.87
148.503922,0.48,-0.52,-9.55,0.07,0.04,-1.03,-12.75,44.87,53.87
148.535929,0.96,-0.05,-9.92,0.02,-0.02,-0.59,-13.87,45.25,54.25
148.559889,0.61,0.88,-9.9,-0.01,0.0,0.0,-13.87,45.25,54.25
148.579922,-0.35,1.71,-9.81,-0.02,-0.03,0.15,-13.87,45.25,54.25
148.603924,0.26,2.13,-9.52,-0.02,-0.1,-0.26,-15.37,43.37,54.25
148.627875,0.6,1.55,-10.01,-0.01,0.0,-0.18,-15.37,43.37,54.25
148.647921,1.1,-0.13,-9.98,-0.02,-0.03,0.04,-15.37,44.5,55.06
148.671911,-0.78,-1.76,-9.86,0.0,0.02,0.6,-15.37,44.5,55.06
148.69588,-0.48,-1.15,-9.77,0.0,0.05,0.63,-15.37,44.5,55.06
148.715918,-0.44,-1.77,-9.67,-0.06,0.04,0.48,-15.37,43.25,53.18
148.739878,-0.54,0.06,-9.94,-0.14,0.08,-0.16,-15.37,43.25,53.18
148.763886,0.77,0.13,-9.74,-0.05,0.07,-0.83,-14.25,44.75,54.68
148.78392,0.4,-0.63,-9.88,0.0,-0.07,-0.37,-15.37,43.25,54.68
148.80788,-1.65,1.77,-10.25,0.08,-0.02,0.19,-16.5,43.0,54.68
148.827711,-0.72,-0.78,-9.74,-0.08,0.0,0.5,-16.5,43.0,54.68
148.851816,-0.39,0.31,-9.77,-0.01,0.01,0.28,-16.5,43.0,54.68
148.875786,0.22,0.34,-9.76,0.0,0.0,0.0,-16.18,43.0,54.56
148.895785,0.24,0.23,-9.9,0.0,0.0,0.0,-16.18,43.0,54.56
148.919826,0.06,0.07,-9.86,0.0,0.0,0.0,-17.0,43.68,55.75
148.943793,0.04,0.06,-9.77,0.0,-0.01,0.0,-17.0,43.68,55.75
148.964397,0.14,0.18,-9.76,0.0,0.0,0.0,-17.0,43.68,55.75
148.987819,0.12,0.24,-9.75,0.0,0.0,0.0,-15.87,43.0,53.37
149.007777,0.0,0.34,-9.74,0.0,-0.01,0.0,-15.87,43.0,53.37
149.031859,-0.03,0.26,-9.77,0.0,0.0,0.0,-16.56,43.68,54.18
