t,raw_acceleration_x,raw_acceleration_y,raw_acceleration_z,rotation_speed_x,rotation_speed_y,rotation_speed_z,magnetic_field_x,magnetic_field_y,magnetic_field_z
80.355784,0.01,0.23,-9.76,0.0,0.0,0.0,-9.68,52.06,37.75
80.375703,-0.03,0.23,-9.74,0.0,0.0,0.0,-9.68,52.06,37.75
80.399747,0.0,0.24,-9.77,0.0,0.0,0.0,-9.68,52.06,37.75
80.419907,0.07,0.28,-9.75,0.0,0.0,0.0,-9.25,52.06,36.68
80.443859,0.08,0.3,-9.82,0.0,0.0,0.0,-9.25,52.06,36.68
80.467904,0.05,0.25,-9.77,0.0,0.0,0.0,-9.25,51.37,37.0
80.487907,-0.02,0.24,-9.78,0.0,0.0,0.0,-9.25,51.37,37.0
80.523873,-0.02,0.22,-9.76,0.0,0.0,0.0,-9.25,51.37,37.0
80.543871,0.01,0.26,-9.8,0.0,0.0,0.0,-9.68,51.68,37.75
80.567999,0.04,0.28,-9.81,0.0,0.0,0.0,-9.68,51.68,37.75
80.591973,0.04,0.28,-9.8,0.0,0.0,0.0,-10.0,52.06,38.68
80.611909,0.03,0.26,-9.81,0.0,0.0,0.0,-10.0,52.06,38.68
80.635884,0.01,0.27,-9.75,0.0,0.0,0.0,-9.25,52.06,38.18
80.659962,0.03,0.25,-9.8,0.0,0.0,0.0,-9.25,52.06,38.18
80.679918,0.02,0.24,-9.77,0.0,0.0,0.0,-9.25,52.06,38.18
80.703852,0.0,0.24,-9.77,0.0,0.0,0.0,-9.25,51.37,37.75
80.723868,0.0,0.25,-9.78,0.0,0.0,0.0,-9.25,51.37,37.75
80.759828,0.05,0.26,-9.8,0.0,0.0,0.0,-9.25,52.06,37.0
80.779962,0.02,0.27,-9.81,0.0,0.0,0.0,-9.25,52.06,37.0
80.80391,0.03,0.26,-9.78,0.0,0.0,0.0,-9.25,52.06,37.0
80.827926,0.03,0.26,-9.81,0.0,0.0,0.0,-8.87,51.0,38.18
80.847893,0.02,0.24,-9.78,0.0,0.0,0.0,-8.87,51.0,38.18
80.871942,0.01,0.26,-9.76,0.0,0.0,0.0,-9.25,51.68,37.0
80.895872,0.01,0.27,-9.77,0.0,0.0,0.0,-9.25,51.68,37.0
80.915905,0.01,0.27,-9.77,0.0,0.0,0.0,-9.25,51.68,37.0
80.939858,0.02,0.25,-9.72,0.0,0.0,0.0,-9.25,51.37,37.37
80.959849,0.07,0.25,-9.8,0.0,0.0,0.0,-9.25,51.37,37.37
80.983905,0.05,0.23,-9.77,0.0,0.0,0.0,-9.68,51.68,37.37
81.00786,0.02,0.27,-9.8,0.0,0.0,0.0,-8.18,51.68,37.0
81.027894,0.07,0.25,-9.78,0.0,0.0,0.0,-9.68,52.5,37.0
81.051902,0.03,0.23,-9.8,0.0,0.0,0.0,-9.68,52.5,37.0
81.075846,0.01,0.25,-9.75,0.0,0.0,0.0,-9.68,52.5,37.0
81.095907,0.0,0.28,-9.8,0.0,0.0,0.0,-9.25,51.68,39.0
81.119802,0.01,0.31,-9.73,0.0,0.0,0.0,-9.25,51.68,39.0
81.139971,0.02,0.27,-9.8,0.0,0.0,0.0,-9.68,51.68,38.18
81.163832,0.02,0.26,-9.77,0.0,0.0,0.0,-9.68,51.68,38.18
81.188009,0.02,0.24,-9.77,0.0,0.0,0.0,-9.68,51.68,38.18
81.207961,0.02,0.26,-9.81,0.0,0.0,0.0,-9.25,51.68,37.0
81.243969,0.03,0.26,-9.77,0.0,0.0,0.0,-9.25,51.68,37.0
81.26401,0.01,0.27,-9.78,0.0,0.0,0.0,-9.68,52.5,37.37
81.288004,0.03,0.26,-9.78,0.0,0.0,0.0,-9.68,52.5,37.37
81.311943,0.08,0.28,-9.84,0.0,0.0,0.0,-9.68,52.5,37.37
81.331997,0.12,0.25,-9.82,0.0,0.0,0.0,-8.87,51.37,37.37
81.355953,0.03,0.18,-9.78,0.0,0.0,0.0,-8.87,51.37,37.37
81.375887,-0.08,0.18,-9.72,0.0,0.0,0.0,-9.25,51.68,37.37
81.400073,-0.07,0.27,-9.72,0.0,0.0,0.0,-9.25,51.68,37.37
81.423975,0.0,0.32,-9.74,0.0,0.0,0.0,-9.25,51.68,37.37
81.44397,-0.01,0.21,-9.8,0.0,0.0,0.0,-9.68,51.37,37.75
81.468007,0.0,0.2,-9.78,0.0,0.0,0.0,-9.68,51.37,37.75
81.491963,0.05,0.24,-9.82,0.0,0.0,0.0,-8.87,51.68,36.68
81.511986,0.08,0.28,-9.81,0.0,0.0,0.0,-8.87,51.68,36.68
81.536012,0.02,0.26,-9.77,0.0,0.0,0.0,-9.68,52.87,38.68
81.559978,-0.01,0.24,-9.81,0.0,0.0,0.0,-9.68,52.87,38.68
81.579997,-0.01,0.19,-9.76,0.0,0.0,0.0,-9.68,52.87,38.68
81.604017,0.0,0.2,-9.77,-0.01,0.0,0.0,-10.0,51.68,37.0
81.62396,0.05,0.24,-9.82,-0.01,0.0,0.0,-10.0,51.68,37.0
81.647921,0.06,0.25,-9.78,-0.01,0.0,0.0,-9.25,52.5,37.37
81.671855,0.04,0.26,-9.8,0.0,0.0,0.0,-9.25,52.5,37.37
81.691959,-0.01,0.24,-9.76,-0.01,0.0,0.0,-9.25,52.5,37.37
81.716,-0.03,0.25,-9.77,0.0,0.0,0.0,-9.25,51.68,37.0
81.735847,0.03,0.24,-9.76,0.0,0.0,0.0,-9.25,51.68,37.0
81.760126,0.07,0.21,-9.82,0.0,0.0,0.0,-9.68,52.06,36.68
81.784066,0.04,0.21,-9.8,-0.01,0.0,0.0,-9.68,52.06,36.68
81.804004,0.03,0.24,-9.81,-0.01,0.0,0.0,-9.68,52.06,36.68
81.827937,-0.02,0.25,-9.76,0.0,0.0,0.0,-9.25,51.37,37.0
81.852005,0.0,0.28,-9.77,0.0,0.0,0.0,-9.25,51.37,37.0
81.871809,0.05,0.26,-9.74,-0.01,0.0,0.0,-9.25,51.37,39.0
81.895863,0.05,0.26,-9.81,-0.01,0.0,0.0,-9.25,51.37,39.0
81.91591,0.04,0.26,-9.77,-0.01,0.0,0.0,-9.25,51.37,39.0
81.939861,0.0,0.25,-9.82,0.0,0.0,0.0,-10.0,52.5,38.18
81.963912,0.02,0.25,-9.78,0.0,0.0,0.0,-10.0,52.5,38.18
81.983897,0.02,0.24,-9.77,0.0,0.0,0.0,-9.25,51.68,36.68
82.007873,0.01,0.23,-9.82,0.01,0.0,0.0,-9.25,51.68,36.68
82.031908,0.02,0.23,-9.76,0.0,0.0,0.0,-9.25,52.06,38.18
82.051903,0.01,0.21,-9.83,0.0,0.0,0.0,-9.25,52.06,38.18
82.075855,0.05,0.24,-9.73,0.0,0.0,0.0,-9.25,52.06,38.18
82.095941,0.02,0.25,-9.77,-0.02,-0.01,0.0,-8.87,51.37,36.18
82.12001,0.05,0.27,-9.86,0.0,0.0,0.0,-8.87,51.37,36.18
82.143997,0.06,0.25,-9.74,0.0,0.0,0.0,-9.68,52.06,37.75
82.163987,-0.02,0.25,-9.86,-0.01,0.0,0.0,-9.68,52.06,37.75
82.187966,-0.01,0.23,-9.71,0.0,0.0,0.0,-9.68,51.37,38.18
82.211974,0.0,0.24,-9.85,-0.01,0.0,0.0,-9.68,51.37,38.18
82.232008,0.05,0.24,-9.77,-0.01,0.0,0.0,-9.68,51.37,38.18
82.255974,0.08,0.27,-9.88,0.0,0.0,0.0,-9.25,51.37,37.0
82.275808,0.1,0.28,-9.77,0.0,0.0,0.0,-9.25,51.37,37.0
82.299957,0.04,0.28,-9.86,0.0,0.0,0.0,-9.25,51.37,37.0
82.323962,-0.01,0.25,-9.68,0.01,0.0,0.0,-9.25,51.37,37.0
82.343942,-0.01,0.23,-9.81,0.0,0.0,0.0,-9.25,51.37,37.0
82.367826,0.01,0.22,-9.69,0.0,0.0,0.0,-10.0,52.06,38.18
82.391871,0.03,0.22,-9.85,0.0,0.0,0.0,-10.0,52.06,38.18
82.411856,0.07,0.24,-9.75,0.0,0.0,0.0,-9.68,52.06,38.18
82.435975,0.01,0.27,-9.8,0.0,0.0,0.0,-9.68,52.06,38.18
82.467882,0.0,0.25,-9.73,0.0,0.0,0.0,-9.68,52.06,38.18
82.491867,0.01,0.23,-9.8,0.01,0.0,0.0,-9.25,51.37,37.0
82.515878,0.06,0.17,-9.81,0.01,0.0,0.0,-9.25,51.37,37.0
82.535964,0.01,0.24,-9.74,0.0,0.0,0.0,-9.25,52.5,37.37
82.559964,0.03,0.22,-9.8,0.0,0.0,0.0,-9.25,52.5,37.37
82.579968,0.08,0.2,-9.78,0.0,0.0,0.0,-9.25,51.68,37.37
82.603864,0.04,0.21,-9.83,-0.01,0.0,0.0,-9.25,51.68,37.37
82.627869,-0.03,0.25,-9.77,-0.01,0.0,0.0,-9.25,51.68,37.37
82.647853,0.0,0.21,-9.77,0.0,0.0,0.0,-9.68,52.06,38.18
82.671965,0.06,0.22,-9.78,0.0,0.0,0.0,-9.68,52.06,38.18
82.695969,0.07,0.2,-9.85,0.0,0.0,0.0,-10.0,51.68,37.37
82.715952,0.06,0.22,-9.77,0.0,0.0,0.0,-10.0,51.68,37.37
82.739961,0.02,0.21,-9.78,0.0,0.0,0.0,-10.0,51.68,37.37
82.760012,0.0,0.24,-9.69,0.0,0.0,0.0,-8.87,51.68,37.37
82.783867,0.0,0.2,-9.78,0.0,0.0,0.0,-8.87,51.68,37.37
82.807863,0.04,0.2,-9.78,-0.01,0.0,0.0,-9.25,51.68,38.68
82.827947,0.06,0.21,-9.84,0.0,0.0,0.0,-9.25,51.68,38.68
82.851968,0.01,0.2,-9.81,0.0,0.02,-0.01,-9.25,51.68,38.68
82.871898,0.03,0.23,-9.76,0.0,0.02,-0.01,-9.68,52.5,37.75
82.895976,0.0,0.26,-9.81,0.0,0.0,0.0,-9.68,52.5,37.75
82.919972,0.08,0.24,-9.78,0.0,0.0,0.0,-9.25,51.37,38.18
82.939964,0.07,0.18,-9.83,0.0,0.0,0.0,-9.25,51.37,38.18
82.963964,0.03,0.2,-9.78,-0.01,-0.01,0.01,-9.25,51.37,38.18
82.987863,0.09,0.23,-9.78,0.01,0.0,0.0,-9.68,51.37,37.75
83.007859,0.05,0.19,-9.8,0.01,0.0,0.0,-9.68,51.37,37.75
83.031856,0.02,0.2,-9.74,0.01,0.0,0.0,-9.25,51.37,39.0
83.055851,0.0,0.23,-9.75,0.0,0.0,0.0,-9.25,51.37,39.0
83.07561,0.04,0.23,-9.75,-0.01,0.0,0.0,-8.87,51.37,37.37
83.099856,0.07,0.23,-9.81,-0.03,0.0,0.0,-8.87,51.37,37.37
83.11986,0.07,0.23,-9.82,-0.05,0.0,-0.01,-8.87,51.37,37.37
83.143868,0.02,0.21,-9.77,-0.05,-0.01,-0.02,-9.25,52.06,37.75
83.167825,-0.01,0.24,-9.76,-0.06,-0.02,-0.04,-9.25,52.06,37.75
83.187865,0.0,0.26,-9.78,-0.04,-0.02,0.0,-10.0,51.68,37.75
83.211866,0.05,0.26,-9.81,0.01,0.0,0.0,-10.0,51.68,37.75
83.23188,0.07,0.23,-9.77,0.06,0.03,0.0,-10.0,51.68,37.75
83.255866,0.06,0.24,-9.83,0.01,0.0,-0.01,-9.25,51.68,37.0
83.279859,-0.01,0.21,-9.68,0.0,0.0,0.0,-9.25,51.68,37.0
83.299863,0.0,0.24,-9.78,0.0,0.0,0.0,-9.68,51.37,37.0
83.323864,0.0,0.23,-9.74,-0.01,0.0,0.0,-9.68,51.37,37.0
83.347849,0.04,0.23,-9.8,0.0,0.0,0.0,-9.68,51.37,37.0
83.367733,0.07,0.23,-9.81,-0.01,0.0,0.0,-8.87,51.37,38.18
83.391865,0.05,0.21,-9.83,-0.01,0.0,0.0,-8.87,51.37,38.18
83.411866,0.01,0.2,-9.84,-0.01,-0.01,0.0,-8.5,51.68,37.37
83.435868,0.0,0.24,-10.37,0.09,-0.02,0.0,-8.5,51.68,37.37
83.459875,-0.13,0.23,-10.05,0.04,0.0,0.0,-8.5,51.68,37.37
83.479868,0.03,0.1,-9.78,0.01,0.02,0.0,-8.87,51.68,38.56
83.503893,0.05,0.12,-9.76,0.0,0.0,0.0,-8.87,51.68,38.56
83.527967,0.0,0.13,-9.75,0.0,0.0,0.0,-9.68,52.5,37.75
83.547959,0.04,0.15,-9.77,0.0,0.0,0.0,-9.68,52.5,37.75
83.571958,0.05,0.12,-9.77,0.0,0.0,0.0,-9.68,52.06,37.37
83.591957,0.02,0.11,-9.81,0.0,0.0,0.0,-9.68,52.06,37.37
83.615965,-0.01,0.12,-9.72,0.0,0.0,0.0,-9.68,52.06,37.37
83.639964,0.0,0.12,-9.77,0.0,0.0,0.0,-8.87,51.68,38.18
83.659976,0.01,0.13,-9.76,0.0,0.0,0.0,-8.87,51.68,38.18
83.683911,0.06,0.12,-9.77,0.0,0.0,0.0,-9.25,51.37,37.37
83.707858,0.02,0.15,-9.82,0.0,0.0,0.0,-9.25,51.37,37.37
83.727903,0.01,0.12,-9.77,0.0,0.0,0.0,-9.25,51.37,37.37
83.751919,-0.02,0.1,-9.8,0.0,0.0,0.0,-9.25,51.68,38.18
83.771874,-0.01,0.12,-9.77,0.0,0.0,0.0,-9.25,51.68,38.18
83.795897,0.01,0.13,-9.77,0.0,0.0,0.0,-8.87,51.68,37.0
83.819888,0.03,0.13,-9.88,0.0,0.0,0.0,-8.87,51.68,37.0
83.839859,0.02,0.11,-9.77,0.0,0.0,0.0,-8.87,51.68,37.0
83.863918,0.0,0.12,-9.78,0.0,0.0,0.0,-9.25,52.5,37.75
83.887868,-0.02,0.14,-9.71,0.0,0.0,0.0,-9.25,52.5,37.75
83.907904,0.0,0.13,-9.77,0.0,0.0,0.0,-10.0,52.06,37.37
83.931812,0.05,0.12,-9.82,0.0,0.0,0.0,-10.0,52.06,37.37
83.951866,0.04,0.14,-9.8,0.0,0.0,0.0,-10.0,52.06,37.37
83.975857,0.01,0.11,-9.8,0.0,0.0,0.0,-8.5,51.68,37.0
83.999769,-0.02,0.12,-9.77,0.0,0.0,0.0,-8.5,51.68,37.0
84.019864,0.0,0.12,-9.73,0.0,0.0,0.0,-9.25,52.5,36.18
84.043854,0.01,0.12,-9.77,0.0,0.0,0.0,-9.25,52.5,36.18
84.06786,0.01,0.12,-9.76,0.0,0.0,0.0,-8.5,52.06,38.18
84.087865,0.01,0.13,-9.82,0.0,0.0,0.0,-8.5,52.06,38.18
84.111851,0.01,0.12,-9.77,0.0,0.0,0.0,-8.5,52.06,38.18
84.131852,0.01,0.12,-9.78,0.0,0.0,0.0,-9.68,52.06,37.75
84.155846,0.02,0.12,-9.77,0.0,0.0,0.0,-9.68,52.06,37.75
84.1799,-0.05,0.14,-9.74,0.0,0.0,0.0,-9.68,52.87,37.0
84.199899,0.0,0.12,-9.77,0.0,0.0,0.0,-9.68,52.87,37.0
84.223848,0.1,0.14,-9.82,0.0,0.0,0.0,-9.68,52.87,37.0
84.247899,0.11,0.13,-9.78,0.0,0.0,0.0,-9.68,51.37,37.37
84.267905,0.02,0.09,-9.76,0.0,0.0,0.0,-9.68,51.37,37.37
84.291888,-0.09,0.13,-9.73,0.0,0.0,0.0,-9.68,52.5,37.0
84.323858,-0.07,0.15,-9.76,0.0,0.0,0.0,-9.68,52.5,37.0
84.347915,0.04,0.12,-9.78,0.0,0.0,0.0,-9.68,52.5,37.0
84.367823,0.09,0.13,-9.8,0.0,0.0,0.0,-9.68,52.06,38.18
84.391887,0.07,0.12,-9.81,0.0,0.0,0.0,-9.68,52.06,38.18
84.415708,0.0,0.12,-9.74,0.0,0.0,0.0,-9.25,52.5,37.75
84.435903,-0.09,0.13,-9.77,0.0,0.0,0.0,-9.25,52.5,37.75
84.45991,-0.04,0.12,-9.76,0.0,0.0,0.0,-9.25,52.5,37.75
84.48391,0.07,0.11,-9.84,0.0,0.0,0.0,-9.25,52.06,37.37
84.503979,-0.04,0.13,-9.74,0.0,0.0,0.0,-9.25,52.5,37.0
84.527965,0.05,0.11,-9.76,0.0,0.0,0.0,-9.25,51.68,38.68
84.547844,0.08,0.12,-9.86,0.0,0.0,0.0,-9.25,51.68,38.68
84.571936,0.05,0.12,-9.8,0.0,0.0,0.0,-9.25,52.06,37.37
84.595906,0.0,0.12,-9.81,0.0,0.0,0.0,-9.25,52.06,37.37
84.615903,-0.05,0.12,-9.72,0.0,0.0,0.0,-9.25,52.06,37.37
84.63983,-0.04,0.14,-9.74,0.0,0.0,0.0,-8.5,52.06,38.18
84.663996,0.07,0.12,-9.81,0.0,0.0,0.0,-8.5,52.06,38.18
84.683894,0.08,0.11,-9.83,0.0,0.0,0.0,-9.68,52.06,37.37
84.707948,0.03,0.13,-9.77,0.0,0.0,0.0,-9.68,52.06,37.37
84.727999,-0.04,0.13,-9.75,0.0,0.0,0.0,-9.68,52.06,37.37
84.752,-0.04,0.13,-9.71,0.0,0.0,0.0,-9.25,51.37,38.68
84.776004,0.03,0.12,-9.78,0.0,0.0,0.0,-9.25,51.37,38.68
84.795986,0.06,0.12,-9.81,0.0,0.0,0.0,-9.25,52.87,38.18
84.819959,0.04,0.13,-9.82,0.0,0.0,0.0,-9.25,52.87,38.18
84.843984,0.0,0.13,-9.8,0.0,0.0,0.0,-9.25,52.87,38.18
84.863911,-0.05,0.1,-9.75,0.0,0.0,0.0,-8.87,52.06,37.0
84.887947,0.0,0.12,-9.74,0.0,0.0,0.0,-8.87,52.06,37.0
84.908002,0.02,0.12,-9.82,0.0,0.0,0.0,-10.0,51.68,37.37
84.932003,0.08,0.14,-9.8,0.0,0.0,0.0,-10.0,51.68,37.37
84.955948,0.03,0.12,-9.81,0.0,0.0,0.0,-10.0,51.68,37.37
84.976022,-0.05,0.12,-9.77,0.0,0.0,0.0,-8.87,52.5,37.37
84.999901,-0.04,0.12,-9.77,0.0,0.0,0.0,-8.87,52.5,37.37
85.023898,0.01,0.11,-9.81,0.0,0.0,0.0,-8.87,51.68,38.18
85.043901,-0.04,0.12,-9.82,0.0,0.0,0.0,-8.5,51.68,37.75
85.067894,0.0,0.13,-9.71,0.0,0.0,0.0,-10.0,52.87,37.37
85.087801,0.03,0.1,-9.84,0.0,0.0,0.0,-10.0,52.87,37.37
85.111987,0.06,0.12,-9.77,0.0,0.0,0.0,-10.0,52.87,37.37
85.135977,0.01,0.13,-9.82,0.0,0.0,0.0,-9.25,51.37,36.68
85.160633,-0.02,0.13,-9.73,0.0,0.0,0.0,-9.25,51.37,36.68
85.179611,-0.03,0.15,-9.77,0.0,0.0,0.0,-9.25,51.37,37.0
85.203764,0.02,0.12,-9.76,0.0,0.0,0.0,-9.25,51.37,37.0
85.223729,0.04,0.12,-9.82,0.0,0.0,0.0,-9.25,51.37,37.0
85.247905,0.06,0.13,-9.77,0.0,0.0,0.0,-9.25,52.5,38.68
85.26791,0.0,0.13,-9.77,0.0,0.0,0.0,-9.25,52.5,38.68
85.291862,-0.04,0.12,-9.72,0.0,0.0,0.0,-9.68,52.5,37.37
85.315902,0.0,0.12,-9.75,0.0,0.0,0.0,-9.68,52.5,37.37
85.33586,0.05,0.11,-9.77,0.0,0.0,0.0,-9.68,52.5,37.37
85.359511,0.07,0.11,-9.83,0.0,0.0,0.0,-9.68,51.68,37.37
85.38384,0.03,0.12,-9.77,0.0,0.0,0.0,-9.68,51.68,37.37
85.404001,-0.03,0.13,-9.77,0.0,0.0,0.0,-9.25,53.18,37.37
85.427863,-0.03,0.12,-9.76,0.0,0.0,0.0,-9.25,53.18,37.37
85.447856,0.02,0.13,-9.77,0.0,0.0,0.0,-9.25,53.18,37.37
85.471855,0.06,0.1,-9.78,0.0,0.0,0.0,-8.87,51.0,37.0
85.495903,0.03,0.12,-9.83,0.0,0.0,0.0,-8.87,51.0,37.0
85.515899,0.0,0.12,-9.77,0.0,0.0,0.0,-9.25,52.5,36.18
85.539856,-0.03,0.12,-9.8,0.0,0.0,0.0,-9.25,52.5,36.18
85.5639,-0.01,0.11,-9.8,0.0,0.0,0.0,-9.25,52.5,36.18
85.583907,-0.03,0.12,-9.77,0.0,0.0,0.0,-8.5,52.06,37.75
85.607901,-0.02,0.15,-9.73,0.0,0.0,0.0,-8.5,52.06,37.75
85.627888,0.01,0.13,-9.8,0.0,0.0,0.0,-9.68,52.06,38.18
85.651859,0.05,0.11,-9.77,0.0,0.0,0.0,-9.68,52.06,38.18
85.675895,0.02,0.11,-9.83,0.0,0.0,0.0,-9.68,52.06,37.0
85.695895,0.01,0.12,-9.75,0.0,0.0,0.0,-9.68,52.06,37.0
85.719965,-0.03,0.12,-9.77,0.0,0.0,0.0,-9.68,52.06,37.0
85.743887,-0.01,0.12,-9.75,0.0,0.0,0.0,-9.68,51.37,37.37
85.763959,0.03,0.14,-9.8,0.0,0.0,0.0,-9.68,51.37,37.37
85.787961,0.05,0.13,-9.77,0.0,0.0,0.0,-10.0,52.5,37.37
85.807961,0.04,0.12,-9.8,0.0,0.0,0.0,-10.0,52.5,37.37
85.832007,0.0,0.11,-9.72,0.0,0.0,0.0,-10.0,52.5,37.37
85.85596,-0.03,0.13,-9.77,0.0,0.0,0.0,-10.0,51.37,37.75
85.87593,0.0,0.14,-9.77,0.0,0.0,0.0,-10.0,51.37,37.75
85.899896,0.04,0.13,-9.77,0.0,0.0,0.0,-9.25,52.06,37.75
85.923854,0.02,0.15,-9.78,0.0,0.0,0.0,-9.25,52.06,37.75
85.94391,0.0,0.11,-9.77,0.0,0.0,0.0,-9.25,52.06,37.75
85.967913,-0.02,0.11,-9.75,0.0,0.0,0.0,-8.87,51.37,38.68
85.987855,0.0,0.11,-9.77,0.0,0.0,0.0,-8.87,51.37,38.68
86.011903,0.0,0.13,-9.75,0.0,0.0,0.0,-10.0,52.5,36.68
86.035964,0.04,0.12,-9.82,0.0,0.0,0.0,-10.0,52.5,36.68
86.055861,0.02,0.12,-9.77,0.0,0.0,0.0,-10.0,52.5,36.68
86.080011,0.01,0.13,-9.78,0.0,0.0,0.0,-9.25,51.37,37.75
86.103959,-0.01,0.13,-9.76,0.0,0.0,0.0,-9.25,51.37,37.75
86.123953,0.0,0.12,-9.77,0.0,0.0,0.0,-9.68,52.06,37.37
86.147995,-0.01,0.12,-9.76,0.0,0.0,0.0,-9.68,52.06,37.37
86.167989,0.0,0.11,-9.72,0.0,0.0,0.0,-8.5,51.68,38.18
86.192003,0.01,0.13,-9.8,0.0,0.0,0.0,-8.5,51.68,38.18
86.215995,0.06,0.12,-9.77,0.0,0.0,0.0,-8.5,51.68,38.18
86.235958,0.0,0.14,-9.85,0.0,0.0,0.0,-9.68,51.37,37.37
86.271964,0.0,0.1,-9.75,0.0,0.0,0.0,-9.68,51.37,37.37
86.291916,0.0,0.12,-9.81,0.0,0.0,0.0,-8.87,52.06,37.37
86.315897,0.0,0.13,-9.77,0.0,0.0,0.0,-8.87,52.06,37.37
86.340025,0.02,0.11,-9.82,0.0,0.0,0.0,-8.87,52.06,37.37
86.371883,0.03,0.11,-9.77,0.0,0.0,0.0,-9.25,52.06,37.37
86.395877,0.01,0.15,-9.81,0.0,0.0,0.0,-9.25,52.06,37.37
86.415905,0.0,0.13,-9.73,0.0,0.0,0.0,-10.0,52.87,37.0
86.439842,-0.01,0.12,-9.8,0.0,0.0,0.0,-10.0,52.87,37.0
86.463845,0.03,0.12,-9.76,0.0,0.0,0.0,-10.0,52.87,37.0
86.48402,0.0,0.13,-9.75,0.0,0.0,0.0,-10.0,52.06,36.68
86.50797,0.0,0.13,-9.77,0.0,0.0,0.0,-10.0,52.06,36.68
86.527961,0.05,0.12,-9.77,0.0,0.0,0.0,-9.25,51.37,37.37
86.55197,0.01,0.13,-9.81,0.0,0.0,0.0,-9.25,51.37,37.37
86.57599,0.01,0.13,-9.77,0.0,0.0,0.0,-10.0,52.06,37.75
86.595907,0.0,0.12,-9.77,0.0,0.0,0.0,-10.0,52.06,37.75
86.619866,-0.01,0.12,-9.77,0.0,0.0,0.0,-10.0,52.06,37.75
86.639897,0.01,0.14,-9.77,0.0,0.0,0.0,-9.25,51.37,37.75
86.663911,0.03,0.11,-9.8,0.0,0.0,0.0,-9.25,51.37,37.75
86.687862,0.01,0.12,-9.81,0.0,0.0,0.0,-10.37,52.5,37.0
86.70799,0.0,0.13,-9.77,0.0,0.0,0.0,-10.37,52.5,37.0
86.731909,-0.01,0.13,-9.77,0.0,0.0,0.0,-10.37,52.5,37.0
86.755872,0.01,0.13,-9.75,0.0,0.0,0.0,-9.25,51.68,37.0
86.776,0.01,0.1,-9.81,0.0,0.0,0.0,-9.25,51.68,37.0
86.799908,0.03,0.13,-9.83,0.0,0.0,0.0,-8.5,52.5,37.0
86.823903,0.01,0.14,-9.84,0.0,0.0,0.0,-8.5,52.5,37.0
86.843964,-0.01,0.12,-9.75,0.0,0.0,0.0,-8.5,52.5,37.0
86.867777,0.0,0.12,-9.78,0.0,0.0,0.0,-9.68,52.06,37.37
86.887894,0.02,0.12,-9.77,0.0,0.0,0.0,-9.68,52.06,37.37
86.91188,0.02,0.12,-9.81,0.0,0.0,0.0,-8.87,52.5,37.0
86.935862,0.01,0.12,-9.82,0.0,0.0,0.0,-8.87,52.5,37.0
86.955862,0.01,0.12,-9.77,0.0,0.0,0.0,-8.87,52.5,37.0
86.979911,0.01,0.13,-9.76,0.0,0.0,0.0,-8.5,51.68,38.18
86.999998,0.0,0.13,-9.78,0.0,0.0,0.0,-8.5,51.68,38.18
87.023997,0.01,0.12,-9.73,0.0,0.0,0.0,-9.25,52.5,37.37
87.048003,-0.02,0.14,-9.86,0.0,0.0,0.0,-9.25,52.5,37.37
87.067872,0.0,0.13,-9.68,0.0,0.0,0.0,-9.25,52.5,37.37
87.091826,0.01,0.12,-9.89,0.0,0.0,0.0,-9.25,52.5,37.37
87.115897,0.02,0.12,-9.74,0.0,0.0,0.0,-9.25,52.5,37.37
87.135783,0.0,0.12,-9.77,0.0,0.0,0.0,-9.68,51.68,38.18
87.159898,0.0,0.11,-9.75,0.0,0.0,0.0,-9.68,51.68,38.18
87.179896,0.0,0.12,-9.77,0.0,0.0,0.0,-9.68,52.5,36.68
87.203852,0.01,0.14,-9.8,0.0,0.0,0.0,-9.68,52.5,36.68
87.228008,0.04,0.13,-9.78,0.0,0.0,0.0,-9.68,52.5,36.68
87.248006,0.03,0.12,-9.75,0.0,0.0,0.0,-9.25,52.06,38.18
87.271955,0.0,0.11,-9.83,0.0,0.0,0.0,-9.25,52.06,38.18
87.296006,-0.01,0.11,-9.75,0.0,0.0,0.0,-10.0,52.06,37.37
87.315906,0.0,0.13,-9.78,0.0,0.0,0.0,-10.0,52.06,37.37
87.339896,0.04,0.12,-9.77,0.0,0.0,0.0,-10.0,52.06,37.37
87.359677,0.04,0.13,-9.77,0.0,0.0,0.0,-8.5,52.06,37.75
87.38394,0.01,0.14,-9.76,0.0,0.0,0.0,-8.5,52.06,37.75
87.407878,0.01,0.12,-9.77,0.0,0.0,0.0,-8.87,52.06,36.68
87.427871,-0.01,0.13,-9.77,0.0,0.0,0.0,-8.87,52.06,36.68
87.451871,0.0,0.12,-9.78,0.0,0.0,0.0,-8.87,52.06,36.68
87.475857,0.06,0.1,-9.78,0.0,0.0,0.0,-9.25,51.37,38.68
87.495857,0.01,0.14,-9.8,0.0,0.0,0.0,-9.25,51.37,38.68
87.519857,0.01,0.12,-9.78,0.0,0.0,0.0,-9.68,52.06,36.68
87.539866,0.0,0.12,-9.76,0.0,0.0,0.0,-9.68,52.06,36.68
87.563861,0.01,0.13,-9.78,0.0,0.0,0.0,-8.87,51.37,37.37
87.58786,-0.01,0.12,-9.8,0.0,0.0,0.0,-8.87,51.37,37.37
87.607852,0.0,0.12,-9.75,0.0,0.0,0.0,-8.87,51.37,37.37
87.63186,0.0,0.13,-9.78,0.0,0.0,0.0,-9.25,51.37,36.18
87.655864,0.03,0.11,-9.82,0.0,0.0,0.0,-9.25,51.37,36.18
87.675857,0.04,0.13,-9.8,0.0,0.0,0.0,-8.87,51.68,38.18
87.699864,0.01,0.11,-9.74,0.0,0.0,0.0,-8.87,51.68,38.18
87.719874,0.0,0.11,-9.77,0.0,0.0,0.0,-8.87,51.68,38.18
87.743852,0.0,0.12,-9.73,0.0,0.0,0.0,-9.25,52.06,37.37
87.767725,0.0,0.11,-9.8,0.0,0.0,0.0,-9.25,52.06,37.37
87.787853,0.05,0.12,-9.77,0.0,0.0,0.0,-9.68,52.5,37.75
87.811872,0.0,0.13,-9.82,0.0,0.0,0.0,-9.68,52.5,37.75
87.835852,-0.02,0.11,-9.76,0.0,0.0,0.0,-9.25,51.37,37.0
87.85585,-0.02,0.12,-9.77,0.0,0.0,0.0,-9.25,51.37,37.0
87.879906,0.0,0.12,-9.77,0.0,0.0,0.0,-9.25,51.37,37.0
87.899859,0.01,0.11,-9.82,0.0,0.0,0.0,-9.68,52.5,38.18
87.923871,0.02,0.14,-9.77,0.0,0.0,0.0,-9.68,52.5,38.18
87.947875,-0.01,0.12,-9.82,0.0,0.0,0.0,-9.68,52.06,37.75
87.967884,0.01,0.13,-9.74,0.0,0.0,0.0,-9.68,52.06,37.75
87.991862,0.0,0.13,-9.81,0.0,0.0,0.0,-9.68,52.06,37.75
88.015862,0.02,0.13,-9.75,0.0,0.0,0.0,-9.25,51.68,37.0
88.035869,0.03,0.12,-9.83,0.0,0.0,0.0,-9.25,51.68,37.0
88.059859,0.01,0.11,-9.74,0.0,0.0,0.0,-8.87,51.68,37.37
88.079931,0.01,0.13,-9.77,0.0,0.0,0.0,-8.87,51.68,37.37
88.103879,-0.01,0.13,-9.75,0.0,0.0,0.0,-8.87,51.68,37.37
88.12796,0.0,0.12,-9.75,0.0,0.0,0.0,-8.87,52.06,37.0
88.14795,-0.01,0.12,-9.77,0.0,0.0,0.0,-8.87,52.06,37.0
88.171964,0.0,0.13,-9.77,0.0,0.0,0.0,-9.25,52.06,36.68
88.195973,0.0,0.16,-9.81,0.0,0.0,0.0,-9.25,52.06,36.68
88.215963,0.03,0.12,-9.77,0.0,0.0,0.0,-9.68,51.68,38.68
88.23998,0.01,0.14,-9.81,0.0,0.0,0.0,-9.68,51.68,38.68
88.259966,0.0,0.14,-9.76,0.0,0.0,0.0,-9.68,51.68,38.68
88.283964,-0.01,0.14,-9.77,0.0,0.0,0.0,-9.68,52.06,37.75
88.307962,0.01,0.12,-9.77,0.0,0.0,0.0,-9.68,52.06,37.75
88.327894,0.02,0.12,-9.78,0.0,0.0,0.0,-9.25,51.68,37.37
88.351969,0.04,0.13,-9.75,0.0,0.0,0.0,-9.25,51.68,37.37
88.375874,0.0,0.12,-9.78,0.0,0.0,0.0,-9.25,51.68,37.37
88.395851,0.0,0.12,-9.78,0.0,0.0,0.0,-10.0,52.5,37.37
88.419854,0.01,0.11,-9.77,0.0,0.0,0.0,-10.0,52.5,37.37
88.439873,0.02,0.12,-9.77,0.0,0.0,0.0,-8.5,52.06,38.18
88.463862,0.03,0.11,-9.76,0.0,0.0,0.0,-8.5,52.06,38.18
88.487861,0.03,0.13,-9.81,0.0,0.0,0.0,-8.5,52.06,38.18
88.507843,0.0,0.11,-9.74,0.0,0.0,0.0,-9.68,52.5,37.75
88.531924,-0.02,0.1,-9.81,0.0,0.0,0.0,-9.68,52.5,37.75
88.555971,0.0,0.13,-9.77,0.0,0.0,0.0,-8.87,51.37,37.37
88.575998,0.01,0.12,-9.8,0.0,0.0,0.0,-8.87,51.37,37.37
88.599982,0.02,0.13,-9.76,0.0,0.0,0.0,-8.87,51.37,37.37
88.619854,0.0,0.12,-9.77,0.0,0.0,0.0,-8.87,52.5,36.68
88.643908,0.02,0.12,-9.8,0.0,0.0,0.0,-9.25,51.68,37.75
88.667867,0.0,0.12,-9.77,0.0,0.0,0.0,-9.25,52.5,37.37
88.687855,0.0,0.13,-9.82,0.0,0.0,0.0,-9.25,52.5,37.37
88.711907,0.0,0.13,-9.74,0.0,0.0,0.0,-8.5,51.68,37.0
88.735865,0.0,0.14,-9.78,0.0,0.0,0.0,-8.5,51.68,37.0
88.755904,0.02,0.11,-9.77,0.0,0.0,0.0,-8.5,51.68,37.0
88.779995,0.04,0.12,-9.8,0.0,0.0,0.0,-9.25,52.5,36.18
88.799866,0.01,0.12,-9.81,0.0,0.0,0.0,-9.25,52.5,36.18
88.823907,0.0,0.14,-9.75,0.0,0.0,0.0,-8.87,52.06,37.0
88.847856,0.01,0.13,-9.76,0.0,0.0,0.0,-8.87,52.06,37.0
88.867805,0.03,0.14,-9.8,0.0,0.0,0.0,-8.87,52.06,37.0
88.891863,0.02,0.13,-9.76,0.0,0.0,0.0,-9.68,51.37,37.37
88.91181,0.0,0.12,-9.77,0.0,0.0,0.0,-9.68,51.37,37.37
88.93585,0.0,0.13,-9.77,0.0,0.0,0.0,-9.25,51.68,37.37
88.959897,0.0,0.12,-9.78,0.0,0.0,0.0,-9.25,51.68,37.37
88.979883,0.01,0.12,-9.77,0.0,0.0,0.0,-9.25,51.68,37.37
89.003856,0.03,0.12,-9.8,0.0,0.0,0.0,-8.5,51.68,36.68
89.0279,0.01,0.12,-9.75,0.0,0.0,0.0,-8.5,51.68,36.68
89.047893,0.0,0.12,-9.77,0.0,0.0,0.0,-8.5,52.06,37.75
89.071887,0.0,0.14,-9.77,0.0,0.0,0.0,-8.5,52.06,37.75
89.091829,0.01,0.12,-9.77,0.0,0.0,0.0,-8.5,52.06,37.75
89.115866,0.03,0.14,-9.77,0.0,0.0,0.0,-9.25,51.68,37.0
89.139905,0.02,0.13,-9.77,0.0,0.0,0.0,-9.25,51.68,37.0
89.159866,0.01,0.12,-9.76,0.0,0.0,0.0,-9.25,52.06,36.68
89.18388,0.0,0.12,-9.77,0.0,0.0,0.0,-9.25,52.06,36.68
89.2079,0.01,0.11,-9.78,0.0,0.0,0.0,-8.5,51.37,37.75
89.227899,0.0,0.14,-9.8,0.0,0.0,0.0,-8.5,51.37,37.75
89.25186,0.0,0.1,-9.77,0.0,0.0,0.0,-8.5,51.37,37.75
89.271853,0.01,0.12,-9.77,0.0,0.0,0.0,-8.87,51.37,36.68
89.295907,0.01,0.12,-9.76,0.0,0.0,0.0,-8.87,51.37,36.68
89.319856,0.03,0.12,-9.8,0.0,0.0,0.0,-9.25,52.87,37.37
89.339889,0.01,0.13,-9.78,0.0,0.0,0.0,-9.25,52.87,37.37
89.363896,0.01,0.14,-9.77,0.0,0.0,0.0,-9.25,52.87,37.37
89.387906,0.0,0.13,-9.78,0.0,0.0,0.0,-8.5,51.68,37.0
89.407894,0.01,0.12,-9.76,0.0,0.0,0.0,-8.5,51.68,37.0
89.431896,0.02,0.14,-9.8,0.0,0.0,0.0,-8.87,51.68,36.68
89.451846,0.01,0.14,-9.77,0.0,0.0,0.0,-8.87,51.68,36.68
89.475922,0.01,0.12,-9.77,0.0,0.0,0.0,-8.87,51.68,36.68
89.499854,0.0,0.12,-9.74,0.0,0.0,0.0,-8.5,52.06,36.68
89.519853,0.02,0.13,-9.8,0.0,0.0,0.0,-8.5,52.06,36.68
89.543907,0.03,0.11,-9.77,0.0,0.0,0.0,-8.87,52.06,37.37
89.567956,0.01,0.14,-9.82,0.0,0.0,0.0,-8.87,52.06,37.37
89.587929,0.02,0.13,-9.77,0.0,0.0,0.0,-8.87,52.06,37.37
89.611909,0.01,0.12,-9.76,0.0,0.0,0.0,-8.5,52.06,37.37
89.63191,-0.02,0.14,-9.78,0.0,0.0,0.0,-8.5,52.06,37.37
89.655875,0.03,0.12,-9.77,0.0,0.0,0.0,-8.5,51.68,36.68
89.679906,0.03,0.13,-9.77,0.0,0.0,0.0,-8.5,51.68,36.68
89.699863,0.02,0.13,-9.77,0.0,0.0,0.0,-8.5,51.68,36.68
89.723898,0.01,0.11,-9.81,0.0,0.0,0.0,-9.25,51.68,35.75
89.7479,0.03,0.11,-9.77,0.0,0.0,0.0,-9.25,51.68,37.75
89.767894,0.02,0.15,-9.81,0.0,0.0,0.0,-8.5,51.68,37.37
89.791895,0.0,0.12,-9.78,0.0,0.0,0.0,-8.5,51.68,37.37
89.81188,0.0,0.14,-9.77,0.0,0.0,0.0,-8.5,52.5,36.68
89.835863,0.0,0.12,-9.77,0.0,0.0,0.0,-8.5,52.5,36.68
89.859584,0.02,0.1,-9.8,0.0,0.0,0.0,-8.5,52.5,36.68
89.879621,0.01,0.14,-9.77,0.0,0.0,0.0,-9.25,51.37,36.68
89.903673,-0.01,0.13,-9.78,0.0,0.0,0.0,-9.25,51.37,36.68
89.927785,0.0,0.12,-9.77,0.0,0.0,0.0,-9.25,51.68,37.0
89.947787,0.01,0.13,-9.77,0.0,0.0,0.0,-9.25,51.68,37.0
89.971774,0.01,0.12,-9.77,0.0,0.0,0.0,-9.25,51.68,37.0
89.991819,0.03,0.12,-9.8,0.0,0.0,0.0,-8.87,52.06,36.18
90.015703,0.02,0.14,-9.78,0.0,0.0,0.0,-8.87,52.06,36.18
90.039762,0.01,0.14,-9.77,0.0,0.0,0.0,-8.87,52.06,36.68
90.059795,0.0,0.12,-9.77,0.0,0.0,0.0,-8.87,52.06,36.68
90.083759,0.01,0.12,-9.77,0.0,0.0,0.0,-8.87,52.06,36.68
90.107743,0.05,0.13,-9.76,0.0,0.0,0.0,-8.5,51.37,37.0
90.127902,0.02,0.14,-9.77,0.0,0.0,0.0,-8.5,51.37,37.0
90.155569,0.01,0.14,-9.76,0.0,0.0,0.0,-8.5,52.87,37.37
90.175509,0.0,0.13,-9.8,0.0,0.0,0.0,-8.5,52.87,37.37
90.195626,0.0,0.13,-9.77,0.0,0.0,0.0,-8.5,52.87,37.37
90.219651,0.02,0.12,-9.77,0.0,0.0,0.0,-8.87,51.68,35.75
90.239808,0.02,0.12,-9.8,0.0,0.0,0.0,-8.87,51.68,35.75
90.263807,0.0,0.12,-9.77,0.0,0.0,0.0,-9.25,51.68,36.68
90.2878,0.02,0.12,-9.77,0.0,0.0,0.0,-8.87,51.37,36.68
90.307775,0.01,0.12,-9.81,0.0,0.0,0.0,-8.87,52.06,37.37
90.331882,0.01,0.13,-9.76,0.0,0.0,0.0,-8.87,52.06,37.37
90.351747,-0.01,0.14,-9.78,0.0,0.0,0.0,-8.87,52.06,37.37
90.375775,0.01,0.12,-9.77,0.0,0.0,0.0,-8.87,51.37,36.68
90.399762,0.02,0.13,-9.78,0.0,0.0,0.0,-8.87,51.37,36.68
90.419757,0.03,0.12,-9.77,0.0,0.0,0.0,-8.5,52.5,35.75
90.443772,0.0,0.14,-9.78,0.0,0.0,0.0,-8.5,52.5,35.75
90.467831,0.0,0.12,-9.75,0.0,0.0,0.0,-8.5,52.5,35.75
90.48778,0.0,0.12,-9.78,0.0,0.0,0.0,-8.5,51.68,37.0
90.511821,-0.02,0.13,-9.57,0.0,0.0,0.0,-8.5,51.68,37.0
90.531757,-0.09,0.12,-9.73,0.0,0.0,0.0,-9.25,52.5,37.0
90.555758,-0.03,0.11,-9.77,0.0,0.0,0.0,-9.25,52.5,37.0
90.57979,0.08,0.11,-9.86,0.0,0.0,0.0,-9.25,52.5,37.0
90.599762,0.1,0.16,-9.73,0.0,0.0,0.0,-8.87,52.06,37.0
90.623799,0.05,0.19,-9.91,0.0,0.0,0.0,-8.87,52.06,37.0
90.6479,0.08,0.25,-9.73,0.0,0.0,0.0,-8.87,52.06,37.75
90.667782,0.07,0.21,-10.02,0.0,0.0,0.0,-8.87,52.06,37.75
90.691851,0.22,0.01,-9.76,0.0,0.0,0.0,-8.87,52.06,37.75
90.711856,0.02,-0.03,-9.97,0.0,0.0,0.0,-8.87,51.37,37.37
90.73581,-0.28,0.12,-9.49,0.0,-0.01,0.0,-8.87,51.37,37.37
90.759852,-0.31,0.23,-9.76,0.0,0.0,0.0,-9.25,53.18,37.75
90.779857,0.06,0.24,-9.68,0.0,0.0,0.0,-9.25,53.18,37.75
90.803813,0.25,0.15,-10.07,0.0,0.01,0.0,-9.25,53.18,37.75
90.82785,-0.08,0.23,-9.85,0.0,0.0,0.0,-8.18,52.06,36.18
90.847861,0.12,0.26,-9.72,0.0,0.0,0.0,-8.18,52.06,36.18
90.871825,0.18,0.09,-10.01,0.0,0.0,0.0,-9.25,51.37,37.75
90.891906,0.16,-0.04,-9.77,0.0,0.0,0.0,-9.25,51.37,37.75
90.915871,0.01,0.14,-9.88,0.0,-0.01,0.0,-8.87,52.5,36.68
90.939855,0.0,0.28,-9.83,0.0,-0.01,0.0,-8.87,52.5,36.68
90.959889,-0.09,0.18,-9.84,0.0,0.0,0.0,-8.87,52.5,36.68
90.983843,-0.12,0.01,-9.73,0.0,0.0,0.0,-8.5,52.06,37.37
91.007904,-0.01,0.07,-9.72,0.0,0.0,0.0,-8.5,52.06,37.37
91.027913,0.08,0.31,-9.81,0.0,0.0,0.0,-8.87,52.06,36.68
91.051862,0.08,0.23,-9.82,0.0,0.0,0.0,-8.87,52.06,36.68
91.071907,-0.03,-0.11,-9.8,0.0,0.0,0.0,-8.87,52.06,36.68
91.095919,-0.03,-0.24,-9.74,0.0,0.0,0.0,-8.5,52.06,37.37
91.119786,0.01,0.12,-9.76,0.0,0.0,0.0,-8.5,52.06,37.37
91.139784,0.15,0.4,-9.83,0.0,0.0,0.0,-8.5,51.68,37.0
91.163864,0.05,0.42,-9.91,0.0,0.0,0.0,-8.5,51.68,37.0
91.187918,-0.22,0.26,-9.55,0.0,-0.01,0.0,-8.5,51.68,37.0
91.207821,-0.31,0.0,-9.69,0.0,0.0,0.0,-9.68,51.37,37.0
91.231795,-0.06,-0.09,-9.61,0.0,0.01,0.0,-9.68,51.37,37.0
91.251861,0.32,-0.11,-9.94,0.0,0.01,0.0,-8.5,52.06,37.37
91.275897,0.37,0.17,-9.96,0.0,0.0,0.0,-8.5,52.06,37.37
91.299863,0.02,0.35,-9.76,-0.01,-0.02,0.0,-8.5,52.06,37.37
91.319901,-0.42,0.35,-9.36,-0.01,-0.02,0.0,-8.18,51.68,36.68
91.343894,-0.54,0.04,-9.67,0.0,0.0,0.0,-8.18,51.68,36.68
91.363904,0.14,0.4,-9.93,0.0,0.0,0.0,-8.87,51.0,37.37
91.387874,0.19,-0.37,-9.75,0.0,0.0,0.0,-8.87,51.0,37.37
91.411904,-0.31,0.02,-9.77,-0.01,-0.01,0.0,-9.25,52.06,36.68
91.431782,-0.35,0.48,-9.44,-0.01,-0.02,0.0,-9.25,52.06,36.68
91.455851,0.16,0.53,-9.93,0.0,0.0,0.0,-9.25,52.06,36.68
91.47984,0.34,0.35,-9.86,0.0,0.0,0.0,-9.25,51.68,38.68
91.499825,0.01,0.06,-9.92,0.0,0.0,0.0,-9.25,51.68,38.68
91.523845,-0.21,-0.09,-9.59,0.0,-0.01,0.0,-8.5,52.5,36.18
91.547853,-0.39,-0.04,-9.68,0.0,0.0,0.0,-8.5,52.5,36.18
91.567847,-0.1,0.08,-9.71,0.0,0.01,0.0,-8.5,52.5,36.18
91.591845,0.46,0.23,-10.03,0.0,0.02,0.0,-8.18,51.68,37.37
91.611892,0.32,0.39,-9.89,0.0,0.0,0.0,-8.18,51.68,37.37
91.635848,-0.02,0.28,-9.77,0.0,-0.01,0.0,-8.87,51.68,37.0
91.659889,-0.34,-0.01,-9.53,0.0,-0.01,0.0,-8.87,51.68,37.0
91.679885,-0.33,-0.09,-9.65,0.0,0.0,0.0,-8.87,51.68,37.0
91.703897,0.19,-0.03,-9.86,0.0,0.01,0.0,-9.68,52.5,37.37
91.723841,0.46,0.08,-10.02,0.0,0.01,0.0,-9.68,52.5,37.37
91.747845,0.16,0.39,-9.81,0.0,-0.01,0.0,-10.0,52.5,36.68
91.771697,-0.16,0.36,-9.69,0.0,-0.01,0.0,-10.0,52.5,36.68
91.791892,-0.31,0.12,-9.52,0.0,0.0,0.0,-10.0,52.5,36.68
91.815855,-0.19,0.01,-9.71,0.0,0.01,0.0,-8.5,51.68,36.18
91.839892,0.3,-0.09,-9.92,0.0,0.01,0.0,-8.5,51.68,36.18
91.860053,0.34,0.12,-9.97,0.0,0.0,0.0,-9.25,52.06,35.75
91.883761,0.01,0.28,-9.78,-0.01,-0.02,0.0,-9.25,52.06,35.75
91.903759,0.36,-0.07,-10.0,0.0,0.01,0.0,-8.87,51.68,36.68
91.927801,0.23,0.08,-9.91,0.0,0.0,0.0,-8.87,51.68,36.68
91.951748,-0.11,0.23,-9.75,-0.01,-0.02,0.0,-8.87,51.68,36.68
91.971785,-0.3,0.25,-9.6,0.0,-0.01,0.0,-9.25,52.5,37.37
91.995862,-0.09,0.15,-9.69,0.0,0.0,0.0,-9.25,52.5,37.37
92.019742,0.2,0.06,-9.9,0.0,0.01,0.0,-8.5,52.87,36.68
92.03976,0.35,-0.01,-9.94,0.0,0.0,0.0,-8.5,52.87,36.68
92.063759,0.1,0.11,-9.85,0.0,-0.01,0.0,-8.5,52.87,36.68
92.083847,-0.26,0.25,-9.61,0.0,-0.02,0.0,-9.25,52.06,37.75
92.107937,-0.28,0.19,-9.65,0.0,0.0,0.0,-9.25,52.06,37.75
92.13184,0.04,0.12,-9.77,0.0,0.0,0.0,-7.37,51.68,37.0
92.151845,0.27,0.05,-9.94,0.0,0.01,0.0,-7.37,51.68,37.0
92.175733,0.28,0.01,-9.91,0.0,0.0,0.0,-7.37,51.68,37.0
92.19985,-0.16,0.2,-9.69,-0.01,-0.02,0.0,-8.87,52.06,37.37
92.219852,-0.3,0.24,-9.59,0.0,-0.01,0.0,-8.87,52.06,37.37
92.243834,-0.1,0.18,-9.71,0.0,0.0,0.0,-8.5,52.87,37.37
92.263778,0.14,0.1,-9.89,0.0,0.01,0.0,-8.5,52.87,37.37
92.28774,0.33,-0.01,-9.96,0.0,0.01,0.0,-8.5,52.87,37.37
92.311849,0.15,0.02,-9.85,0.0,-0.01,0.0,-9.68,51.68,37.0
92.331846,-0.24,0.21,-9.67,0.0,-0.02,0.0,-9.68,51.68,37.0
92.355847,-0.3,0.27,-9.61,0.0,0.0,0.0,-9.25,52.87,35.75
92.379793,0.02,0.2,-9.77,0.0,0.0,0.0,-9.25,52.87,35.75
92.399765,0.19,0.11,-9.9,0.0,0.0,0.0,-9.25,52.87,35.75
92.42375,0.24,-0.01,-9.92,0.0,0.0,0.0,-8.87,51.37,37.37
92.443852,0.13,0.21,-9.84,0.0,0.01,0.0,-8.5,52.5,36.68
92.467838,0.31,0.13,-9.96,0.0,0.0,0.0,-9.25,52.06,37.0
92.49185,0.21,0.02,-9.89,0.0,0.0,0.0,-9.25,52.06,37.0
92.511851,-0.17,0.02,-9.69,0.0,-0.01,0.0,-8.5,52.87,38.18
92.535849,-0.27,0.11,-9.64,0.0,0.0,0.0,-8.5,52.87,38.18
92.559849,-0.04,0.19,-9.77,0.0,0.0,0.0,-8.5,52.87,38.18
92.579851,0.27,0.24,-9.91,0.0,0.0,0.0,-8.87,51.68,37.37
92.603866,0.28,0.18,-9.92,0.0,0.0,0.0,-8.87,51.68,37.37
92.623751,0.0,0.06,-9.75,0.0,-0.01,0.0,-8.5,52.5,37.37
92.647951,-0.23,0.03,-9.68,0.0,-0.01,0.0,-8.5,52.5,37.37
92.671858,-0.18,0.11,-9.67,0.0,0.0,0.0,-8.5,52.5,37.37
92.691826,0.05,0.13,-9.82,0.0,0.0,0.0,-8.87,52.5,35.75
92.715932,0.26,0.19,-9.91,0.0,0.0,0.0,-8.87,52.5,35.75
92.739911,0.19,0.19,-9.86,0.0,0.0,0.0,-9.25,52.87,37.37
92.759911,-0.06,0.12,-9.73,0.0,-0.01,0.0,-9.25,52.87,37.37
92.783875,-0.18,0.09,-9.69,0.0,0.0,0.0,-9.25,52.87,37.37
92.803988,-0.08,0.04,-9.74,0.0,0.0,0.0,-8.5,52.5,37.75
92.827997,0.11,0.12,-9.82,0.0,0.0,0.0,-8.5,52.5,37.75
92.852013,0.13,0.19,-9.86,0.0,0.0,0.0,-8.87,51.68,36.68
92.871942,0.05,0.18,-9.78,0.0,0.0,0.0,-8.87,51.68,36.68
92.89601,-0.02,0.13,-9.75,0.0,0.0,0.0,-8.87,51.68,36.68
92.920013,-0.1,0.1,-9.69,0.0,0.0,0.0,-9.25,52.06,36.18
92.940008,-0.06,0.1,-9.75,0.0,0.0,0.0,-9.25,52.06,36.18
92.963987,0.1,0.16,-9.82,0.0,0.0,0.0,-8.87,52.06,37.0
92.983822,-0.09,0.05,-9.76,0.0,0.0,0.0,-8.87,51.68,36.68
93.007996,0.07,0.05,-9.77,0.0,0.0,0.0,-9.25,51.68,37.37
93.053056,0.08,0.12,-9.83,0.0,0.0,0.0,-9.25,51.68,37.37
93.075828,0.07,0.19,-9.81,0.0,0.0,0.0,-9.25,51.68,37.37
93.099657,0.01,0.18,-9.73,0.0,0.0,0.0,-8.87,51.37,37.75
93.119901,-0.1,0.17,-9.72,0.0,0.0,0.0,-8.87,51.37,37.75
93.143865,-0.05,0.1,-9.69,0.0,0.0,0.0,-8.87,52.06,37.0
93.163853,0.01,0.06,-9.81,0.0,0.0,0.0,-8.87,52.06,37.0
93.187726,-0.04,0.07,-9.69,0.0,0.0,0.0,-8.87,52.06,37.0
93.211884,-0.17,0.08,-9.53,0.0,0.0,0.0,-9.25,51.68,36.68
93.231843,0.22,0.19,-10.01,0.0,0.01,0.0,-9.25,51.68,36.68
93.255851,0.52,0.16,-9.56,0.0,0.0,0.0,-8.87,52.5,36.68
93.279889,0.04,0.22,-9.92,0.0,-0.01,0.0,-8.87,52.5,36.68
93.299942,-0.25,0.31,-9.31,0.0,-0.02,0.0,-8.87,52.5,36.68
93.323968,-0.18,0.14,-9.81,0.0,0.0,0.0,-8.87,52.5,37.0
93.343956,0.62,0.38,-9.73,0.03,-0.04,0.15,-9.25,52.5,37.37
93.367839,0.39,0.85,-9.69,0.01,-0.04,0.0,-8.87,52.06,37.0
93.391836,0.12,1.34,-9.75,-0.02,0.01,-0.13,-8.87,52.06,37.0
93.411841,-0.07,2.8,-9.98,0.0,0.0,-0.28,-9.25,52.87,37.0
93.435834,0.43,3.29,-10.02,0.03,-0.04,-0.54,-9.25,52.87,37.0
93.455884,0.8,2.73,-9.72,0.04,-0.02,-0.69,-9.25,52.87,37.0
93.479857,1.08,1.96,-9.63,0.08,-0.02,-1.03,-9.68,52.06,37.0
93.503771,-0.1,-0.23,-10.02,0.02,0.0,-1.2,-9.68,52.06,37.0
93.52386,-0.02,-0.35,-9.76,0.06,0.0,-1.13,-10.68,52.06,37.37
93.54792,-0.04,-0.62,-10.0,0.0,0.0,-0.81,-10.68,52.06,37.37
93.571825,0.36,-0.85,-9.74,0.0,-0.01,-0.74,-10.68,52.06,37.37
93.591971,0.73,-1.4,-10.38,0.05,0.0,-0.38,-13.0,51.0,37.75
93.615922,0.39,-0.5,-10.08,0.0,-0.01,-0.34,-13.0,51.0,37.75
93.635982,-0.09,-0.52,-9.77,-0.02,-0.02,-0.16,-14.06,49.87,38.18
93.659971,0.72,1.07,-9.64,0.07,-0.04,-0.43,-14.06,49.87,38.18
93.68392,0.01,-0.02,-9.76,0.0,0.0,-0.51,-14.06,49.87,38.18
93.703963,-0.49,-1.15,-9.53,0.01,0.0,-0.51,-14.06,49.87,39.0
93.728007,-0.22,-1.01,-9.59,-0.01,0.01,-0.31,-14.06,49.87,39.0
93.75197,0.45,-0.81,-10.01,-0.08,0.01,-0.17,-15.56,49.37,38.18
93.772159,0.77,-0.47,-9.93,-0.01,0.0,0.06,-15.56,49.37,38.18
93.795848,0.0,-1.25,-9.47,0.02,-0.01,-0.05,-15.56,49.37,38.18
93.815704,0.2,-0.42,-9.68,0.0,-0.02,-0.07,-16.0,48.56,38.56
93.83988,0.12,-0.69,-9.72,0.0,-0.02,-0.06,-16.0,48.56,38.56
93.863782,0.1,-0.81,-9.86,0.0,-0.01,-0.07,-16.0,49.37,39.37
93.883879,0.01,0.19,-9.96,-0.02,-0.02,0.0,-15.56,49.0,40.18
93.907863,0.06,0.24,-9.67,0.0,-0.01,0.0,-16.0,49.37,39.75
93.932474,0.0,0.31,-9.8,0.0,0.0,0.0,-16.0,49.37,39.75
93.951676,0.0,0.21,-9.75,0.0,0.0,0.0,-16.0,49.37,39.75
93.975701,0.02,0.11,-9.77,0.0,0.0,0.0,-15.56,49.37,39.37
93.995723,0.08,0.06,-9.77,0.0,0.0,0.0,-15.56,49.37,39.37
94.019658,0.07,0.1,-9.83,0.0,0.0,0.0,-16.0,49.37,38.68
94.043702,0.02,0.22,-9.78,0.0,0.0,0.0,-16.0,49.37,38.68
94.063679,-0.01,0.27,-9.77,0.0,0.0,0.0,-16.0,48.56,39.37
94.087695,-0.01,0.23,-9.76,0.0,0.0,0.0,-16.0,48.56,39.37
94.111702,0.01,0.16,-9.76,0.0,0.0,0.0,-16.0,48.56,39.37
94.131777,0.06,0.12,-9.82,0.0,0.0,0.0,-16.25,49.37,39.0
94.155654,0.08,0.14,-9.81,0.0,0.0,0.0,-16.25,49.37,39.0
94.1757,0.01,0.17,-9.78,0.0,0.0,0.0,-15.56,49.0,39.0
94.199765,-0.02,0.25,-9.74,0.0,0.0,0.0,-15.56,49.0,39.0
94.223814,0.02,0.26,-9.81,0.0,0.0,0.0,-15.56,49.0,39.0
94.243825,0.1,0.25,-9.77,0.0,0.0,0.0,-15.56,49.0,38.56
94.267771,0.05,0.2,-9.82,0.0,0.0,0.0,-15.56,49.0,38.56
94.291816,0.01,0.13,-9.76,0.0,0.0,0.0,-15.56,49.0,38.68
94.311824,-0.03,0.09,-9.75,0.0,0.0,0.0,-15.56,49.0,38.68
94.335825,0.0,0.11,-9.74,0.0,0.0,0.0,-15.56,49.0,38.68
94.356533,0.03,0.12,-9.77,0.0,0.0,0.0,-15.56,48.56,38.68
94.379718,0.06,0.2,-9.77,0.0,0.0,0.0,-15.56,48.56,38.68
94.403724,0.04,0.2,-9.77,0.0,0.0,0.0,-15.56,49.0,39.0
94.423701,0.08,0.17,-9.82,0.0,0.0,0.0,-16.0,48.56,39.37
94.447663,0.07,0.17,-9.77,0.0,0.0,0.0,-15.56,49.37,39.0
94.471695,0.04,0.16,-9.8,0.0,0.0,0.0,-15.56,49.37,39.0
94.49169,0.01,0.2,-9.76,0.0,0.0,0.0,-15.56,49.37,39.0
94.515658,0.01,0.18,-9.78,0.0,0.0,0.0,-15.56,48.56,38.68
94.535719,0.07,0.17,-9.78,0.0,0.0,0.0,-15.56,48.56,38.68
94.559706,0.06,0.19,-9.78,0.0,0.0,0.0,-16.25,49.75,39.0
94.583699,0.04,0.13,-9.77,0.0,0.0,0.0,-16.25,49.75,39.0
94.603704,-0.01,0.14,-9.77,0.0,0.0,0.0,-16.25,49.75,39.0
94.627703,0.0,0.16,-9.73,0.0,0.0,0.0,-15.56,49.0,39.0
94.651675,0.03,0.18,-9.77,0.0,0.0,0.0,-15.56,49.0,39.0
94.672365,0.04,0.15,-9.78,0.0,0.0,0.0,-16.25,49.0,38.68
94.695655,0.07,0.13,-9.78,0.0,0.0,0.0,-16.25,49.0,38.68
94.715655,0.01,0.12,-9.77,0.0,0.0,0.0,-16.25,49.0,38.68
94.739664,-0.01,0.18,-9.77,0.0,0.0,0.0,-16.25,49.0,39.37
94.763663,0.0,0.19,-9.72,0.0,0.0,0.0,-16.25,49.0,39.37
94.78366,0.06,0.24,-9.81,0.0,0.0,0.0,-15.56,49.0,39.0
94.807782,0.1,0.21,-9.85,0.0,0.0,0.0,-15.56,49.0,39.0
94.831665,0.07,0.15,-9.77,0.0,0.0,0.0,-15.56,49.0,39.0
94.851825,0.0,0.13,-9.77,0.0,0.0,0.0,-15.18,49.75,40.18
94.875685,0.0,0.15,-9.73,0.0,0.0,0.0,-15.18,49.75,40.18
94.895662,0.05,0.21,-9.77,0.0,0.0,0.0,-16.25,49.37,38.68
94.9197,0.06,0.24,-9.81,0.0,0.0,0.0,-16.25,49.37,38.68
94.944363,0.03,0.25,-9.77,0.0,0.0,0.0,-16.25,49.37,38.68
94.963694,0.06,0.09,-9.81,0.0,0.0,0.0,-16.68,49.75,38.68
94.987652,0.09,0.12,-9.82,0.0,0.0,0.0,-16.68,49.75,38.68
95.011666,0.05,0.23,-9.81,0.0,0.0,0.0,-16.0,48.25,40.56
95.031674,-0.02,0.21,-9.73,0.0,0.0,0.0,-16.0,48.25,40.56
95.055707,-0.06,0.23,-9.74,0.0,0.0,0.0,-15.18,49.0,38.18
95.076335,0.09,0.12,-9.81,0.0,0.0,0.0,-15.18,49.0,38.18
95.099663,0.11,0.1,-9.9,0.0,0.0,0.0,-15.18,49.0,38.18
95.124364,0.07,0.1,-9.77,0.0,0.0,0.0,-16.0,48.56,39.37
95.143608,-0.02,0.16,-9.78,0.0,0.0,0.0,-16.0,48.56,39.37
95.179341,-0.1,0.23,-9.71,0.0,0.0,0.0,-16.0,49.0,38.68
95.199518,-0.02,0.22,-9.74,0.0,0.0,0.0,-16.0,49.0,38.68
95.223635,0.07,0.17,-9.81,0.0,0.0,0.0,-16.0,49.0,38.68
95.247597,0.12,0.11,-9.85,0.0,0.0,0.0,-15.18,48.25,39.37
95.267676,0.06,0.12,-9.77,0.0,0.0,0.0,-15.18,48.25,39.37
95.291681,-0.04,0.2,-9.74,0.0,0.0,0.0,-16.68,48.56,38.56
95.311795,-0.02,0.22,-9.76,0.0,0.0,0.0,-16.68,48.56,38.56
95.335693,0.08,0.18,-9.77,0.0,0.0,0.0,-16.68,48.56,38.56
95.371862,0.09,0.17,-9.82,0.0,0.0,0.0,-16.68,48.56,40.18
95.391828,0.0,0.19,-9.76,0.0,0.0,0.0,-16.68,48.56,40.18
95.415858,0.12,0.1,-9.88,0.0,-0.01,0.0,-15.18,48.56,38.68
95.435988,-0.2,0.19,-9.59,0.0,-0.01,0.0,-15.18,48.56,38.68
95.46046,-0.27,0.31,-9.63,0.0,0.0,0.0,-15.18,49.0,37.75
95.483816,0.14,0.25,-9.84,0.0,0.01,0.0,-15.18,49.0,37.75
95.503922,0.31,0.13,-9.94,0.0,0.0,0.0,-15.18,49.0,37.75
95.527862,0.15,0.09,-9.84,0.0,0.0,0.0,-16.0,49.0,39.0
95.551908,-0.04,0.08,-9.73,0.0,-0.01,0.0,-16.0,49.0,39.0
95.57197,-0.14,0.17,-9.63,0.0,0.0,0.0,-16.0,49.37,37.0
95.59593,-0.06,0.23,-9.77,0.0,0.0,0.0,-16.0,49.37,37.0
95.615923,0.16,0.21,-9.84,0.0,0.0,0.0,-16.0,49.37,37.0
95.639966,0.13,0.17,-9.86,0.0,0.0,0.0,-16.25,49.0,39.75
95.663922,0.01,0.18,-9.77,0.0,0.0,0.0,-16.25,49.0,39.75
95.683969,-0.09,0.16,-9.73,0.0,0.0,0.0,-15.56,49.0,39.0
95.707967,-0.02,0.17,-9.73,0.0,0.0,0.0,-15.56,49.0,39.0
95.73192,0.05,0.19,-9.81,0.0,0.0,0.0,-15.56,49.0,39.0
95.751894,0.07,0.18,-9.78,0.0,0.0,0.0,-15.18,48.56,39.0
95.775738,0.04,0.12,-9.77,0.0,0.0,0.0,-15.18,48.56,39.0
95.795953,0.01,0.11,-9.75,0.0,0.0,0.0,-16.25,49.75,39.37
95.819917,0.0,0.17,-9.8,0.0,0.0,0.0,-16.25,49.75,39.37
95.843942,0.0,0.21,-9.74,0.0,0.0,0.0,-16.25,49.75,39.37
95.863933,-0.01,0.17,-9.76,0.0,0.0,0.0,-15.56,49.37,39.37
95.887837,0.0,0.2,-9.75,0.0,0.0,0.0,-15.56,49.37,39.37
95.912494,0.02,0.23,-9.77,0.0,0.0,0.0,-16.25,49.37,39.0
95.931832,0.05,0.21,-9.8,0.0,0.0,0.0,-16.25,49.37,39.0
95.955897,0.05,0.16,-9.77,0.0,0.0,0.0,-16.0,49.0,39.37
95.975815,0.01,0.14,-9.81,0.0,0.0,0.0,-16.0,49.0,39.37
95.99984,0.0,0.16,-9.77,0.0,0.0,0.0,-16.0,49.0,39.37
96.023926,0.02,0.2,-9.77,0.0,0.0,0.0,-15.18,49.0,39.37
96.043875,0.01,0.17,-9.78,0.0,0.0,0.0,-15.18,49.0,39.37
96.067701,0.04,0.16,-9.8,0.0,0.0,0.0,-15.56,49.0,39.0
96.087986,0.04,0.14,-9.77,0.0,0.0,0.0,-15.56,49.0,39.0
96.111924,0.02,0.16,-9.77,0.0,0.0,0.0,-15.56,49.0,39.0
96.135963,0.02,0.16,-9.77,0.0,0.0,0.0,-16.0,49.37,39.0
