t,raw_acceleration_x,raw_acceleration_y,raw_acceleration_z,rotation_speed_x,rotation_speed_y,rotation_speed_z,magnetic_field_x,magnetic_field_y,magnetic_field_z
133.699745,-0.36,0.39,-9.84,-0.01,0.02,0.0,-1.0,-31.06,40.18
133.723714,-0.33,0.39,-9.81,0.0,0.0,0.0,-1.0,-31.5,40.18
133.743904,-0.33,0.36,-9.76,0.0,0.0,0.0,-1.0,-31.5,40.18
133.767869,-0.3,0.35,-9.75,0.0,0.0,0.0,-0.56,-30.75,38.56
133.791663,-0.21,0.49,-10.15,-0.01,0.0,0.0,-0.56,-30.75,38.56
133.811953,-0.43,0.5,-9.78,0.0,0.0,0.0,-0.56,-30.75,38.56
133.83983,-0.39,0.38,-10.0,0.0,0.0,0.0,-0.56,-31.06,40.18
133.855963,-0.47,0.41,-9.83,0.0,0.0,0.0,-0.56,-31.06,40.18
133.879857,-0.31,0.42,-9.9,0.0,0.0,0.0,-1.0,-30.68,39.0
133.903672,-0.18,0.44,-9.65,0.0,0.0,0.0,-1.0,-30.68,39.0
133.923793,-0.24,0.39,-9.85,0.0,0.0,0.0,-1.0,-30.37,40.18
133.947938,-0.4,0.37,-9.82,0.0,0.0,0.0,-1.0,-30.37,40.18
133.97175,-0.32,0.36,-9.84,0.0,0.0,0.0,-1.0,-30.37,40.18
133.995691,-0.28,0.33,-9.69,0.0,0.0,0.0,-1.37,-31.06,40.18
134.0157,-0.4,0.41,-9.77,0.0,0.0,0.0,-1.37,-31.06,40.18
134.035805,-0.36,0.38,-9.74,0.0,0.0,0.0,-1.0,-30.37,39.75
134.059906,-0.28,0.35,-9.77,0.0,0.0,0.0,-1.0,-30.37,39.75
134.083728,-0.3,0.35,-9.67,0.0,0.0,0.0,-1.0,-30.37,39.75
134.103516,-0.32,0.36,-9.78,0.0,0.0,0.0,-0.56,-31.06,39.75
134.127922,-0.32,0.45,-9.76,0.0,0.0,0.0,-0.56,-31.06,39.75
134.15189,-0.32,0.46,-9.8,0.0,0.0,0.0,-0.56,-30.37,41.0
134.171765,-0.31,0.36,-9.75,0.0,0.0,0.0,-0.56,-30.37,41.0
134.195825,-0.26,0.36,-9.76,0.0,0.0,0.0,-0.56,-30.37,41.0
134.216112,-0.32,0.34,-9.72,0.0,0.0,0.0,-0.56,-31.06,40.56
134.239836,-0.33,0.38,-9.8,0.0,0.0,0.0,-0.56,-31.06,40.56
134.275765,-0.32,0.43,-9.74,0.0,0.0,0.0,-0.25,-31.06,41.0
134.295925,-0.31,0.43,-9.84,0.0,0.0,0.0,-0.25,-31.06,41.0
134.319817,-0.31,0.38,-9.72,0.0,0.0,0.0,-0.25,-31.06,41.0
134.339913,-0.28,0.34,-9.77,0.0,0.0,0.0,-0.56,-30.68,39.37
134.363795,-0.33,0.34,-9.76,0.0,0.0,0.0,-0.56,-30.68,39.37
134.387786,-0.28,0.38,-9.76,0.0,0.0,0.0,-0.56,-30.37,40.56
134.408024,-0.34,0.36,-9.77,0.0,0.0,0.0,-1.75,-30.75,39.75
134.431931,-0.32,0.38,-9.83,0.0,0.0,0.0,-1.75,-30.75,39.75
134.451787,-0.31,0.39,-9.75,0.0,0.0,0.0,-1.75,-30.75,39.75
134.487699,-0.28,0.37,-9.76,0.0,0.0,0.0,-1.75,-31.06,40.18
134.511699,-0.26,0.42,-9.75,0.0,0.0,0.0,-1.75,-31.06,40.18
134.531713,-0.28,0.44,-9.76,0.0,0.0,0.0,-0.56,-30.75,40.18
134.555793,-0.37,0.41,-9.8,0.0,0.0,0.0,-0.56,-30.75,40.18
134.575813,-0.36,0.37,-9.8,0.0,0.0,0.0,-0.56,-30.75,40.18
134.599912,-0.32,0.34,-9.77,0.0,0.0,0.0,-0.56,-31.06,41.37
134.623757,-0.26,0.35,-9.76,0.0,0.0,0.0,-0.56,-31.06,41.37
134.64379,-0.25,0.41,-9.73,0.0,0.0,0.0,-0.56,-30.75,41.0
134.667773,-0.31,0.46,-9.84,0.0,0.0,0.0,-0.56,-30.75,41.0
134.699882,-0.38,0.46,-9.8,0.0,0.0,0.0,-0.56,-30.75,41.0
134.723681,-0.38,0.39,-9.8,0.0,0.0,0.0,-1.0,-30.75,40.18
134.747678,-0.33,0.34,-9.75,0.0,0.0,0.0,-1.0,-30.75,40.18
134.767864,-0.3,0.34,-9.72,0.0,0.0,0.0,-1.0,-31.5,41.0
134.791915,-0.32,0.38,-9.77,0.0,0.0,0.0,-1.0,-31.5,41.0
134.811682,-0.3,0.32,-9.72,0.0,0.0,0.0,-1.75,-31.18,40.18
134.835789,-0.28,0.28,-9.72,0.0,0.0,0.0,-1.75,-31.18,40.18
134.85989,-0.38,0.38,-9.81,0.0,0.0,0.0,-1.75,-31.18,40.18
134.879939,-0.42,0.44,-9.85,0.0,0.0,0.0,-0.25,-31.18,41.0
134.904017,-0.3,0.45,-9.8,0.0,0.0,0.0,-0.25,-31.18,41.0
134.927869,-0.22,0.42,-9.75,0.0,0.0,0.0,-1.37,-31.18,40.56
134.947849,-0.28,0.32,-9.77,0.0,0.0,0.0,-1.37,-31.18,40.56
134.971688,-0.33,0.32,-9.75,0.0,0.0,0.0,-1.37,-31.18,40.56
134.991893,-0.37,0.37,-9.8,0.0,0.0,0.0,-0.56,-30.37,40.56
135.015774,-0.33,0.44,-9.78,0.0,0.0,0.0,-0.56,-30.37,40.56
135.051787,-0.28,0.46,-9.77,0.0,0.0,0.0,-1.0,-31.06,41.75
135.071883,-0.28,0.44,-9.8,0.0,0.0,0.0,-1.0,-31.06,41.75
135.095898,-0.27,0.34,-9.83,0.0,0.0,0.0,-1.0,-31.06,41.75
135.115887,-0.31,0.24,-9.66,0.0,0.0,0.0,-0.56,-31.06,40.56
135.139964,-0.34,0.25,-9.77,0.0,0.0,0.0,-0.56,-31.06,40.56
135.163544,-0.37,0.46,-9.82,0.0,0.0,0.0,-0.25,-31.06,40.18
135.183821,-0.31,0.54,-9.88,0.0,0.0,0.0,-0.25,-31.06,40.18
135.207665,-0.18,0.48,-9.71,0.0,0.0,0.0,-0.25,-31.06,40.18
135.231841,-0.23,0.35,-9.69,0.0,0.0,0.0,-0.56,-31.06,40.18
135.251987,-0.37,0.28,-9.73,0.0,0.0,0.0,-0.56,-31.06,40.18
135.275958,-0.25,0.47,-9.71,0.0,0.0,0.0,-1.0,-31.06,40.56
135.29589,-0.28,0.41,-9.8,0.0,0.0,0.0,-1.0,-31.06,40.56
135.31989,-0.4,0.41,-9.72,0.0,0.0,0.0,-1.37,-31.5,41.75
135.343891,-0.36,0.34,-9.85,0.0,0.0,0.0,-1.37,-31.5,41.75
135.3639,-0.31,0.35,-9.65,0.0,0.0,0.0,-1.37,-31.5,41.75
135.387886,-0.16,0.27,-9.69,0.0,0.0,0.0,-0.25,-30.75,39.75
135.411891,-0.28,0.41,-9.77,0.0,0.0,0.0,-0.25,-30.75,39.75
135.431887,-0.41,0.46,-9.89,0.0,0.0,0.0,-0.56,-31.75,40.56
135.455882,-0.39,0.44,-9.88,0.0,0.0,0.0,-0.56,-31.75,40.56
135.475888,-0.31,0.42,-9.83,0.0,0.0,0.0,-0.56,-31.75,40.56
135.511886,-0.19,0.33,-9.72,0.0,0.0,0.0,-1.0,-31.06,40.18
135.531885,-0.24,0.36,-9.77,0.0,0.0,0.0,-1.0,-31.06,40.18
135.555894,-0.39,0.43,-9.82,0.0,0.0,0.0,-1.0,-31.06,40.18
135.57988,-0.43,0.41,-9.92,0.0,0.0,0.0,-1.0,-31.06,40.18
135.599889,-0.37,0.4,-9.77,0.0,0.0,0.0,-1.0,-31.06,40.18
135.623878,-0.24,0.38,-9.71,0.0,0.0,0.0,-0.25,-31.06,41.0
135.647955,-0.23,0.4,-9.71,0.0,0.0,0.0,-0.25,-31.06,41.0
135.66799,-0.3,0.44,-9.77,0.0,0.0,0.0,-0.56,-31.18,41.0
135.691987,-0.36,0.44,-9.77,0.0,0.0,0.0,-0.56,-31.18,41.0
135.711929,-0.2,0.35,-9.67,0.0,0.0,0.0,-1.75,-31.5,40.56
135.735723,-0.33,0.44,-9.83,0.0,0.0,0.0,-1.75,-31.5,40.56
135.759998,-0.4,0.46,-9.81,0.0,0.0,0.0,-1.75,-31.5,40.56
135.779994,-0.42,0.36,-9.84,0.0,0.0,0.0,-1.37,-30.0,41.75
135.803995,-0.18,0.23,-9.67,0.0,0.0,0.0,-1.37,-30.0,41.75
135.827983,-0.21,0.23,-9.67,0.0,0.0,0.0,-0.56,-31.06,40.56
135.847832,-0.35,0.41,-10.01,-0.01,0.0,0.0,-0.56,-31.06,40.56
135.872002,-0.41,0.6,-9.73,0.0,0.0,0.0,-0.56,-31.06,40.56
135.892021,-0.46,0.5,-9.97,0.0,0.0,0.0,-0.56,-30.0,40.56
135.916004,-0.3,0.37,-9.71,0.0,0.0,0.0,-0.56,-30.0,40.56
135.939997,-0.12,0.2,-9.67,0.0,0.0,0.0,-1.0,-31.06,40.56
135.960033,-0.28,0.25,-9.69,0.0,0.0,0.0,-1.0,-31.06,40.56
135.983995,-0.42,0.45,-9.89,0.0,-0.01,0.0,-1.0,-31.06,40.56
136.00798,-0.46,0.53,-9.82,0.0,0.0,0.0,-1.0,-30.75,41.75
136.028023,-0.37,0.48,-9.94,0.0,0.0,0.0,-1.0,-30.75,41.75
136.05199,-0.11,0.35,-9.51,0.01,0.0,0.0,-1.75,-31.5,40.56
136.083989,-0.11,0.27,-9.66,0.0,0.0,0.0,-1.75,-31.5,40.56
136.108047,-0.4,0.31,-9.73,0.0,0.0,0.0,-1.75,-31.5,40.56
136.127982,-0.46,0.42,-9.93,0.0,0.0,0.0,-1.0,-30.75,40.18
136.152025,-0.46,0.46,-9.78,0.0,0.0,0.0,-1.0,-30.75,40.18
136.176039,-0.33,0.38,-9.84,0.0,0.0,0.0,-1.0,-30.75,40.18
136.196031,-0.45,0.45,-9.91,0.0,0.0,0.0,-0.56,-30.0,41.0
136.22004,-0.44,0.4,-9.81,0.0,0.0,0.0,-0.56,-30.75,38.56
136.244033,-0.16,0.34,-9.75,0.01,0.0,0.0,-0.56,-30.75,38.56
136.264003,-0.1,0.35,-9.58,0.0,0.0,0.0,-0.56,-30.75,38.56
136.288009,-0.31,0.39,-9.83,0.0,0.0,0.0,-1.37,-31.06,40.18
136.308019,-0.45,0.45,-9.83,0.0,0.0,0.0,-1.37,-31.06,40.18
136.331899,-0.44,0.48,-9.88,0.0,0.0,0.0,-0.56,-30.68,40.56
136.355927,-0.36,0.38,-9.77,0.0,0.0,0.0,-0.56,-30.68,40.56
136.375929,-0.18,0.31,-9.68,0.0,0.0,0.0,-0.56,-30.68,40.56
136.400038,-0.23,0.34,-9.67,0.0,0.0,0.0,-1.37,-30.68,40.18
136.423885,-0.42,0.37,-9.86,0.0,0.0,0.0,-1.37,-30.68,40.18
136.443924,-0.46,0.47,-9.84,0.0,0.0,0.0,-0.25,-31.5,39.75
136.46794,-0.35,0.46,-9.83,0.0,0.0,0.0,-0.25,-31.5,39.75
136.487932,-0.23,0.35,-9.68,0.0,0.0,0.0,-0.25,-31.5,39.75
136.523855,-0.15,0.32,-9.68,0.0,0.0,0.0,0.06,-30.75,40.56
136.543952,-0.32,0.34,-9.73,0.0,0.0,0.0,0.06,-30.75,40.56
136.567934,-0.43,0.38,-9.85,0.0,0.0,0.0,-0.56,-30.0,39.75
136.591933,-0.4,0.48,-9.84,0.0,0.0,0.0,-0.56,-30.0,39.75
136.611932,-0.33,0.45,-9.85,0.0,0.0,0.0,-0.56,-30.0,39.75
136.635889,-0.44,0.38,-9.91,0.0,0.0,0.0,-2.06,-31.06,40.56
136.659943,-0.37,0.41,-9.77,0.0,0.0,0.0,-2.06,-31.06,40.56
136.679899,-0.15,0.4,-9.68,0.0,0.0,0.0,-1.0,-30.75,40.18
136.70394,-0.13,0.52,-9.76,0.0,0.0,0.0,-1.0,-30.75,40.18
136.723897,-0.45,0.52,-9.8,0.0,0.0,0.0,-0.25,-31.06,41.0
136.747899,-0.53,0.32,-9.94,0.0,0.0,0.0,-0.25,-31.06,41.0
136.771929,-0.27,0.2,-9.63,0.01,0.0,0.0,-0.25,-31.06,41.0
136.791924,-0.26,0.17,-9.69,0.0,0.0,0.0,-0.56,-30.37,41.0
136.815957,-0.42,0.25,-9.76,-0.01,-0.01,0.0,-0.56,-30.37,41.0
136.839931,-0.48,0.6,-9.94,0.0,0.0,0.0,-1.37,-31.5,40.18
136.859923,-0.4,0.66,-9.89,0.0,0.0,0.0,-1.37,-31.5,40.18
136.883923,-0.01,0.57,-9.76,0.0,0.01,0.0,-1.37,-31.5,40.18
136.903881,0.11,0.4,-9.51,0.0,0.0,0.0,-0.56,-30.75,40.18
136.927857,-0.3,0.14,-9.71,-0.01,-0.01,0.0,-0.56,-30.75,40.18
136.951883,-0.67,0.13,-9.86,0.0,0.0,0.0,-1.0,-30.75,39.37
136.971797,-0.65,0.34,-9.93,0.0,0.0,0.0,-1.0,-30.75,39.37
136.995889,-0.44,0.46,-9.81,0.0,0.0,0.0,-1.0,-30.0,40.18
137.01993,-0.05,0.54,-9.72,0.0,0.0,0.0,-1.0,-30.0,40.18
137.03992,0.01,0.5,-9.6,0.0,0.0,0.0,-1.0,-30.0,40.18
137.063882,-0.28,0.37,-9.82,0.0,0.0,0.0,-1.37,-30.75,41.37
137.08392,-0.62,0.27,-9.88,0.0,0.0,0.0,-1.37,-30.75,41.37
137.107923,-0.56,0.3,-9.86,0.0,0.0,0.0,-0.25,-30.37,40.18
137.131884,-0.28,0.34,-9.71,0.0,0.0,0.0,-0.25,-30.37,40.18
137.151927,-0.53,0.36,-9.91,0.0,0.0,0.0,-0.25,-31.06,41.75
137.175934,-0.48,0.26,-9.72,0.0,0.0,0.0,-0.25,-31.06,41.75
137.199872,-0.45,0.35,-9.8,0.0,0.0,0.0,-0.25,-31.06,41.75
137.219862,-0.15,0.48,-9.74,0.0,0.0,0.0,-1.0,-31.06,39.75
137.24394,-0.13,0.49,-9.57,0.0,0.0,0.0,-1.0,-31.06,39.75
137.263882,-0.26,0.4,-9.77,0.0,0.0,0.0,-0.56,-31.06,40.56
137.287928,-0.4,0.36,-9.69,0.0,0.0,0.0,-0.56,-31.06,40.56
137.311811,-0.52,0.37,-9.86,0.0,0.0,0.0,-0.56,-31.06,40.56
137.331882,-0.48,0.33,-9.8,0.0,0.0,0.0,-1.75,-30.75,39.75
137.355932,-0.13,0.38,-9.6,0.0,0.0,0.0,-1.75,-30.75,39.75
137.37989,-0.18,0.4,-9.78,0.0,0.0,0.0,-0.25,-30.37,40.56
137.399884,-0.32,0.42,-9.76,0.0,0.0,0.0,-0.25,-30.37,40.56
137.423932,-0.44,0.42,-9.88,0.0,0.0,0.0,-0.25,-30.37,40.56
137.44393,-0.47,0.38,-9.84,0.0,0.0,0.0,-0.56,-31.75,41.0
137.467946,-0.27,0.34,-9.8,0.0,0.0,0.0,-0.56,-31.75,41.0
137.491933,-0.11,0.39,-9.65,0.0,0.0,0.0,-0.56,-30.37,40.56
137.511889,-0.22,0.39,-9.77,0.0,0.0,0.0,-0.56,-30.37,40.56
137.535935,-0.39,0.41,-9.82,0.0,0.0,0.0,-0.56,-30.37,40.56
137.559938,-0.44,0.38,-9.84,0.0,0.0,0.0,-1.37,-31.5,40.18
137.579892,-0.43,0.34,-9.86,0.0,0.0,0.0,-1.37,-31.5,40.18
137.603924,-0.22,0.34,-9.71,0.0,0.0,0.0,0.37,-30.37,41.0
137.62393,-0.14,0.45,-9.67,0.0,0.0,0.0,0.37,-30.37,41.0
137.647884,-0.26,0.47,-9.8,0.0,0.0,0.0,0.37,-30.37,41.0
137.671923,-0.44,0.45,-9.82,0.0,0.0,0.0,-1.37,-30.37,40.18
137.691871,-0.17,0.47,-9.71,0.0,0.0,0.0,-0.56,-31.06,41.0
137.715786,-0.28,0.55,-9.84,0.0,0.0,0.0,-0.56,-30.75,41.0
137.73994,-0.43,0.48,-9.84,0.0,0.0,0.0,-0.56,-30.75,41.0
137.75993,-0.41,0.28,-9.81,0.0,0.0,0.0,-0.56,-30.37,41.0
137.783936,-0.28,0.2,-9.72,0.0,0.0,0.0,-0.56,-30.37,41.0
137.803925,-0.21,0.37,-9.69,0.0,0.0,0.0,-0.56,-30.37,41.0
137.827923,-0.28,0.51,-9.77,0.0,0.0,0.0,-1.37,-31.5,40.18
137.85194,-0.37,0.57,-9.86,0.0,0.0,0.0,-1.37,-31.5,40.18
137.87194,-0.37,0.4,-9.8,0.0,0.0,0.0,-1.37,-30.37,40.18
137.895892,-0.32,0.23,-9.76,0.0,0.0,0.0,-1.37,-30.37,40.18
137.915035,-0.26,0.22,-9.67,0.0,0.0,0.0,-1.37,-30.37,40.18
137.939404,-0.3,0.3,-9.71,0.0,0.0,0.0,-0.56,-30.75,39.75
137.975831,-0.37,0.52,-9.85,0.0,0.0,0.0,-0.56,-30.75,39.75
137.995814,-0.34,0.6,-9.86,0.0,0.0,0.0,-1.0,-30.0,40.18
138.019878,-0.27,0.45,-9.78,0.0,0.0,0.0,-1.0,-30.0,40.18
138.039918,-0.26,0.3,-9.71,0.0,0.0,0.0,-1.0,-30.0,40.18
138.063897,-0.28,0.24,-9.69,0.0,0.0,0.0,-0.56,-30.75,39.75
138.087937,-0.39,0.33,-9.8,0.0,0.0,0.0,-0.56,-30.75,39.75
138.107937,-0.43,0.47,-9.86,0.0,0.0,0.0,-0.56,-30.75,39.75
138.131881,-0.3,0.53,-9.83,0.0,0.0,0.0,-0.56,-30.75,39.75
138.155929,-0.44,0.37,-9.77,0.0,0.0,0.0,-0.56,-30.75,39.37
138.175933,-0.42,0.42,-9.86,0.0,0.0,0.0,-0.56,-30.75,39.37
138.199942,-0.27,0.47,-9.73,0.0,0.0,0.0,-0.56,-30.75,39.37
138.219832,-0.2,0.4,-9.75,0.0,0.0,0.0,-0.25,-31.06,39.37
138.243922,-0.25,0.35,-9.69,0.0,0.0,0.0,-0.25,-31.06,39.37
138.267922,-0.37,0.37,-9.78,0.0,0.0,0.0,-1.0,-30.75,40.56
138.287937,-0.43,0.4,-9.82,0.0,0.0,0.0,-1.0,-30.75,40.56
138.311872,-0.34,0.43,-9.77,0.0,0.0,0.0,-1.0,-30.75,40.56
138.33593,-0.27,0.43,-9.75,0.0,0.0,0.0,-1.0,-31.06,41.0
138.367929,-0.22,0.35,-9.74,0.0,0.0,0.0,-1.0,-31.06,41.0
138.391935,-0.27,0.34,-9.69,0.0,0.0,0.0,-0.56,-31.06,39.75
138.4119,-0.37,0.4,-9.82,0.0,0.0,0.0,-0.56,-31.06,39.75
138.43593,-0.42,0.4,-9.83,0.0,0.0,0.0,-0.56,-31.06,39.75
138.459888,-0.28,0.43,-9.77,0.0,0.0,0.0,-1.75,-30.75,41.0
138.479755,-0.22,0.39,-9.71,0.0,0.0,0.0,-1.75,-30.75,41.0
138.503901,-0.25,0.34,-9.73,0.0,0.0,0.0,-0.56,-31.06,39.75
138.523834,-0.34,0.35,-9.77,0.0,0.0,0.0,-0.56,-31.06,39.75
138.547895,-0.41,0.39,-9.82,0.0,0.0,0.0,-0.56,-31.06,39.75
138.571899,-0.37,0.42,-9.82,0.0,0.0,0.0,-0.56,-30.37,40.18
138.591947,-0.38,0.37,-9.8,0.0,0.0,0.0,-1.0,-31.06,40.18
138.615888,-0.43,0.35,-9.8,0.0,0.0,0.0,-1.0,-31.06,39.37
138.635886,-0.34,0.4,-9.78,0.0,0.0,0.0,-1.0,-31.06,39.37
138.659836,-0.21,0.41,-9.72,0.0,0.0,0.0,-0.56,-30.75,39.37
138.68388,-0.21,0.42,-9.74,0.0,0.0,0.0,-0.56,-30.75,39.37
138.703874,-0.32,0.41,-9.77,0.0,0.0,0.0,-0.56,-30.75,39.37
138.727894,-0.38,0.38,-9.83,0.0,0.0,0.0,-1.0,-30.0,41.0
138.751887,-0.4,0.35,-9.77,0.0,0.0,0.0,-1.0,-30.0,41.0
138.771872,-0.34,0.35,-9.77,0.0,0.0,0.0,-0.56,-31.5,39.37
138.795887,-0.22,0.41,-9.72,0.0,0.0,0.0,-0.56,-31.5,39.37
138.815891,-0.23,0.42,-9.76,0.0,0.0,0.0,-0.56,-31.5,39.37
138.839889,-0.33,0.44,-9.8,0.0,0.0,0.0,-1.0,-30.75,40.18
138.863876,-0.41,0.4,-9.83,0.0,0.0,0.0,-1.0,-30.75,40.18
138.883677,-0.38,0.32,-9.76,0.0,0.0,0.0,0.06,-31.06,40.56
138.907804,-0.27,0.32,-9.73,0.0,0.0,0.0,0.06,-31.06,40.56
138.931795,-0.26,0.36,-9.71,0.0,0.0,0.0,0.06,-31.06,40.56
138.951879,-0.3,0.42,-9.8,0.0,0.0,0.0,-0.56,-31.06,39.75
138.975896,-0.34,0.48,-9.81,0.0,0.0,0.0,-0.56,-31.06,39.75
138.995903,-0.38,0.4,-9.83,0.0,0.0,0.0,-1.75,-30.75,41.0
139.019887,-0.34,0.35,-9.77,0.0,0.0,0.0,-1.75,-30.75,41.0
139.043892,-0.28,0.3,-9.73,0.0,0.0,0.0,-1.75,-30.75,41.0
139.063879,-0.27,0.34,-9.71,0.0,0.0,0.0,-0.56,-30.37,41.0
139.087952,-0.34,0.43,-9.8,0.0,0.0,0.0,-0.56,-30.37,41.0
139.111951,-0.34,0.45,-9.82,0.0,0.0,0.0,-1.37,-30.37,39.75
139.131969,-0.32,0.35,-9.78,0.0,0.0,0.0,-1.0,-31.5,40.18
139.155965,-0.37,0.41,-9.82,0.0,0.0,0.0,-0.56,-30.75,40.18
139.175951,-0.36,0.43,-9.81,0.0,0.0,0.0,-0.56,-30.75,40.18
139.199975,-0.32,0.39,-9.8,0.0,0.0,0.0,-0.56,-30.75,40.18
139.223907,-0.26,0.34,-9.75,0.0,0.0,0.0,-0.25,-30.37,41.0
139.243883,-0.28,0.36,-9.74,0.0,0.0,0.0,-0.25,-30.37,41.0
139.267867,-0.33,0.36,-9.8,0.0,0.0,0.0,-0.56,-31.75,39.75
139.291851,-0.36,0.43,-9.84,0.0,0.0,0.0,-0.56,-31.75,39.75
139.311853,-0.32,0.41,-9.78,0.0,0.0,0.0,-0.56,-31.75,39.75
139.335857,-0.28,0.35,-9.74,0.0,0.0,0.0,0.06,-30.75,41.0
139.355958,-0.25,0.36,-9.74,0.0,0.0,0.0,0.06,-30.75,41.0
139.379945,-0.32,0.37,-9.76,0.0,0.0,0.0,-1.0,-31.5,40.18
139.404003,-0.37,0.4,-9.81,0.0,0.0,0.0,-1.0,-31.5,40.18
139.423968,-0.37,0.44,-9.83,0.0,0.0,0.0,-1.0,-31.5,40.18
139.447951,-0.31,0.42,-9.77,0.0,0.0,0.0,-0.25,-30.37,40.56
139.472009,-0.26,0.35,-9.75,0.0,0.0,0.0,-0.25,-30.37,40.56
139.491723,-0.3,0.35,-9.76,0.0,0.0,0.0,-0.56,-31.06,40.18
139.515931,-0.33,0.38,-9.77,0.0,0.0,0.0,-0.56,-31.06,40.18
139.535858,-0.38,0.43,-9.81,0.0,0.0,0.0,-0.56,-31.06,40.18
139.559915,-0.33,0.43,-9.8,0.0,0.0,0.0,-0.56,-31.5,40.56
139.591966,-0.28,0.38,-9.75,0.0,0.0,0.0,-0.56,-31.5,40.56
139.616016,-0.27,0.33,-9.75,0.0,0.0,0.0,-0.56,-31.06,40.56
139.639958,-0.32,0.37,-9.77,0.0,0.0,0.0,-0.56,-31.06,40.56
139.659965,-0.36,0.4,-9.8,0.0,0.0,0.0,-0.56,-31.06,40.56
139.683965,-0.28,0.35,-9.75,0.0,0.0,0.0,-1.0,-31.06,40.18
139.707792,-0.36,0.39,-9.77,0.0,0.0,0.0,-1.0,-31.06,40.18
139.72792,-0.37,0.41,-9.8,0.0,0.0,0.0,0.06,-30.75,41.37
139.752011,-0.34,0.43,-9.81,0.0,0.0,0.0,0.06,-30.75,41.37
139.772012,-0.27,0.42,-9.73,0.0,0.0,0.0,-0.56,-31.06,39.37
139.796065,-0.26,0.39,-9.77,0.0,0.0,0.0,-0.56,-31.06,39.37
139.820282,-0.3,0.38,-9.74,0.0,0.0,0.0,-0.56,-31.06,39.37
139.839907,-0.38,0.37,-9.77,0.0,0.0,0.0,-1.0,-30.37,39.37
139.863914,-0.38,0.4,-9.77,0.0,0.0,0.0,-1.0,-30.37,39.37
139.887937,-0.3,0.39,-9.77,0.0,0.0,0.0,-1.0,-31.5,39.75
139.907941,-0.27,0.4,-9.74,0.0,0.0,0.0,-1.0,-31.5,39.75
139.931913,-0.28,0.4,-9.77,0.0,0.0,0.0,-1.0,-31.5,39.75
139.951952,-0.3,0.38,-9.77,0.0,0.0,0.0,-1.37,-30.37,41.37
139.975954,-0.39,0.39,-9.78,0.0,0.0,0.0,-1.37,-30.37,41.37
139.99996,-0.35,0.39,-9.8,0.0,0.0,0.0,-1.0,-31.5,40.18
140.019932,-0.3,0.38,-9.77,0.0,0.0,0.0,-1.0,-31.5,40.18
140.043911,-0.28,0.35,-9.76,0.0,0.0,0.0,-1.0,-31.5,40.18
140.067926,-0.28,0.37,-9.75,0.0,0.0,0.0,-0.25,-30.37,39.37
140.087942,-0.35,0.4,-9.78,0.0,0.0,0.0,-0.25,-30.37,39.37
140.111922,-0.36,0.38,-9.81,0.0,0.0,0.0,-0.56,-31.5,40.56
140.131886,-0.32,0.38,-9.77,0.0,0.0,0.0,-0.56,-30.37,40.56
140.156828,-0.36,0.41,-9.77,0.0,0.0,0.0,-0.56,-30.37,40.18
140.179845,-0.35,0.4,-9.82,0.0,0.0,0.0,-0.56,-30.37,40.18
140.199883,-0.32,0.37,-9.75,0.0,0.0,0.0,-0.56,-30.37,40.18
140.223902,-0.28,0.36,-9.73,0.0,0.0,0.0,-0.56,-30.75,40.56
140.248006,-0.32,0.4,-9.76,0.0,0.0,0.0,-0.56,-30.75,40.56
140.267879,-0.33,0.4,-9.81,0.0,0.0,0.0,-0.56,-30.68,40.56
140.292015,-0.36,0.41,-9.78,0.0,0.0,0.0,-0.56,-30.68,40.56
140.311676,-0.32,0.37,-9.78,0.0,0.0,0.0,-0.56,-30.68,40.56
140.335841,-0.28,0.36,-9.76,0.0,0.0,0.0,-0.56,-30.0,40.56
140.359931,-0.27,0.37,-9.74,0.0,0.0,0.0,-0.56,-30.0,40.56
140.379807,-0.31,0.39,-9.77,0.0,0.0,0.0,-1.0,-30.75,41.0
140.415864,-0.34,0.42,-9.82,0.0,0.0,0.0,-1.0,-30.75,41.0
140.435863,-0.33,0.4,-9.78,0.0,0.0,0.0,-1.0,-30.75,41.0
140.459832,-0.32,0.36,-9.77,0.0,0.0,0.0,-1.37,-30.75,40.18
140.48374,-0.28,0.37,-9.76,0.0,0.0,0.0,-1.37,-30.75,40.18
140.504096,-0.3,0.39,-9.77,0.0,0.0,0.0,-1.0,-30.0,39.75
140.528066,-0.32,0.4,-9.77,0.0,0.0,0.0,-1.0,-30.0,39.75
140.547918,-0.36,0.41,-9.78,0.0,0.0,0.0,-1.0,-30.0,39.75
140.571957,-0.3,0.41,-9.8,0.0,0.0,0.0,-1.37,-31.06,39.37
140.595905,-0.34,0.4,-9.78,0.0,0.0,0.0,-1.37,-31.06,39.37
140.627923,-0.32,0.39,-9.77,0.0,0.0,0.0,-0.56,-30.68,40.18
140.651957,-0.32,0.39,-9.77,0.0,0.0,0.0,-0.56,-30.68,40.18
140.671946,-0.28,0.36,-9.77,0.0,0.0,0.0,-0.25,-31.06,40.18
140.695919,-0.28,0.35,-9.77,0.0,0.0,0.0,-0.25,-31.06,40.18
140.720022,-0.33,0.4,-9.81,0.0,0.0,0.0,-0.25,-31.06,40.18
140.739953,-0.33,0.42,-9.8,0.0,0.0,0.0,-1.37,-31.06,40.18
140.763917,-0.32,0.4,-9.77,0.0,0.0,0.0,-1.37,-31.06,40.18
140.787954,-0.28,0.38,-9.78,0.0,0.0,0.0,-0.25,-30.37,37.75
140.807918,-0.3,0.33,-9.76,0.0,0.0,0.0,-0.25,-30.37,37.75
140.831924,-0.3,0.36,-9.75,0.0,0.0,0.0,-0.25,-30.37,37.75
140.851919,-0.33,0.4,-9.78,0.0,0.0,0.0,-0.56,-30.0,40.56
140.87592,-0.33,0.4,-9.77,0.0,0.0,0.0,-0.56,-30.0,40.56
140.899922,-0.31,0.38,-9.77,0.0,0.0,0.0,-1.0,-30.37,40.56
140.919954,-0.28,0.39,-9.77,0.0,0.0,0.0,-1.0,-30.37,40.56
140.943916,-0.3,0.36,-9.75,0.0,0.0,0.0,-1.0,-30.37,40.56
140.963915,-0.34,0.39,-9.77,0.0,0.0,0.0,-0.56,-30.75,41.75
140.987959,-0.32,0.41,-9.81,0.0,0.0,0.0,-0.56,-30.75,41.75
141.011919,-0.32,0.41,-9.77,0.0,0.0,0.0,0.06,-30.37,39.75
141.031965,-0.33,0.39,-9.77,0.0,0.0,0.0,-1.0,-30.68,41.0
141.055951,-0.33,0.38,-9.78,0.0,0.0,0.0,-1.37,-31.06,40.18
141.079926,-0.3,0.41,-9.81,0.0,0.0,0.0,-1.37,-31.06,40.18
141.099889,-0.28,0.4,-9.77,0.0,0.0,0.0,-1.37,-31.06,40.18
141.123954,-0.26,0.39,-9.77,0.0,0.0,0.0,0.06,-30.75,41.37
141.147909,-0.33,0.39,-9.8,0.0,0.0,0.0,0.06,-30.75,41.37
141.167952,-0.34,0.37,-9.77,0.0,0.0,0.0,-0.56,-30.75,40.56
141.191969,-0.32,0.43,-9.78,0.0,0.0,0.0,-0.56,-30.75,40.56
141.21192,-0.28,0.38,-9.78,0.0,0.0,0.0,-0.56,-30.75,40.56
141.235913,-0.28,0.39,-9.77,0.0,0.0,0.0,-1.37,-30.37,40.18
141.259907,-0.33,0.39,-9.77,0.0,0.0,0.0,-1.37,-30.37,40.18
141.279913,-0.34,0.37,-9.76,0.0,0.0,0.0,-1.0,-31.75,39.75
141.303951,-0.32,0.39,-9.82,0.0,0.0,0.0,-1.0,-31.75,39.75
141.327923,-0.33,0.4,-9.76,0.0,0.0,0.0,-1.0,-31.75,39.75
141.34796,-0.28,0.4,-9.77,0.0,0.0,0.0,-0.56,-30.68,41.0
141.371953,-0.3,0.38,-9.73,0.0,0.0,0.0,-0.56,-30.68,41.0
141.391901,-0.32,0.39,-9.83,0.0,0.0,0.0,-0.56,-30.37,39.37
141.415962,-0.35,0.4,-9.78,0.0,0.0,0.0,-0.56,-30.37,39.37
141.439964,-0.33,0.4,-9.81,0.0,0.0,0.0,-0.56,-30.37,39.37
141.459917,-0.31,0.39,-9.77,0.0,0.0,0.0,-0.56,-30.75,41.37
141.483958,-0.28,0.37,-9.77,0.0,0.0,0.0,-0.56,-30.75,41.37
141.504005,-0.31,0.38,-9.74,0.0,0.0,0.0,-1.0,-30.75,40.18
141.52792,-0.34,0.37,-9.81,0.0,0.0,0.0,-1.0,-30.75,40.18
141.551909,-0.32,0.38,-9.8,0.0,0.0,0.0,-1.0,-30.75,40.18
141.571954,-0.32,0.39,-9.77,0.0,0.0,0.0,-0.25,-31.06,39.0
141.595918,-0.31,0.39,-9.82,0.0,0.0,0.0,-0.25,-31.06,39.0
141.619948,-0.35,0.38,-9.77,0.0,0.0,0.0,-1.0,-30.0,40.18
141.640102,-0.31,0.37,-9.78,0.0,0.0,0.0,-1.0,-30.0,40.18
141.664099,-0.31,0.38,-9.74,0.0,0.0,0.0,-0.56,-30.37,39.75
141.684095,-0.31,0.42,-9.78,0.0,0.0,0.0,-0.56,-30.37,39.75
141.707902,-0.34,0.41,-9.77,0.0,0.0,0.0,-0.56,-30.37,39.75
141.732297,-0.32,0.4,-9.78,0.0,0.0,0.0,-0.25,-30.75,40.56
141.752104,-0.34,0.4,-9.77,0.0,0.0,0.0,-0.25,-30.75,40.56
141.77596,-0.31,0.38,-9.75,0.0,0.0,0.0,-0.56,-30.68,39.75
141.799976,-0.28,0.38,-9.77,0.0,0.0,0.0,-0.56,-30.68,39.75
141.819855,-0.31,0.37,-9.77,0.0,0.0,0.0,-0.56,-30.68,39.75
141.843797,-0.33,0.39,-9.77,0.0,0.0,0.0,-0.56,-30.37,40.18
141.863973,-0.33,0.38,-9.78,0.0,0.0,0.0,-0.56,-30.37,40.18
141.888094,-0.31,0.38,-9.74,0.0,0.0,0.0,-0.56,-30.37,40.56
141.912105,-0.3,0.37,-9.77,0.0,0.0,0.0,-0.56,-30.37,40.56
141.932114,-0.31,0.43,-9.75,0.0,0.0,0.0,-0.56,-30.37,40.56
141.956104,-0.32,0.41,-9.77,0.0,0.0,0.0,0.06,-30.0,40.56
141.980057,-0.33,0.4,-9.78,0.0,0.0,0.0,0.06,-30.0,40.56
142.000098,-0.32,0.38,-9.78,0.0,0.0,0.0,-0.56,-30.0,39.0
142.024053,-0.31,0.38,-9.77,0.0,0.0,0.0,-0.56,-30.0,39.0
142.044064,-0.3,0.38,-9.75,0.0,0.0,0.0,-0.25,-31.5,41.37
142.068069,-0.32,0.4,-9.78,0.0,0.0,0.0,-0.25,-31.5,41.37
142.092072,-0.33,0.4,-9.82,0.0,0.0,0.0,-0.25,-31.5,41.37
142.111923,-0.3,0.38,-9.77,0.0,0.0,0.0,-0.56,-30.75,41.37
142.135852,-0.32,0.39,-9.8,0.0,0.0,0.0,-0.56,-30.75,41.37
142.159887,-0.34,0.4,-9.78,0.0,0.0,0.0,-0.56,-30.75,40.18
142.179909,-0.32,0.38,-9.81,0.0,0.0,0.0,-0.56,-30.75,40.18
142.203908,-0.3,0.37,-9.75,0.0,0.0,0.0,-0.25,-30.37,41.0
142.223873,-0.32,0.38,-9.78,0.0,0.0,0.0,-0.25,-30.37,41.0
142.247828,-0.32,0.38,-9.75,0.0,0.0,0.0,-0.25,-30.37,41.0
142.271811,-0.32,0.4,-9.77,0.0,0.0,0.0,-0.56,-31.5,41.0
142.291888,-0.34,0.41,-9.78,0.0,0.0,0.0,-0.56,-31.5,41.0
142.315902,-0.32,0.4,-9.77,0.0,0.0,0.0,-1.0,-30.37,41.0
142.339696,-0.32,0.38,-9.73,0.0,0.0,0.0,-1.0,-30.37,41.0
142.359888,-0.28,0.35,-9.77,0.0,0.0,0.0,-1.0,-30.37,41.0
142.383911,-0.32,0.37,-9.76,0.0,0.0,0.0,-1.0,-30.75,41.37
142.403903,-0.33,0.39,-9.83,0.0,0.0,0.0,-1.0,-30.75,41.37
142.427904,-0.32,0.4,-9.74,0.0,0.0,0.0,-0.56,-30.75,41.37
142.451883,-0.32,0.37,-9.77,0.0,0.0,0.0,-0.56,-30.75,41.37
142.472059,-0.31,0.38,-9.72,0.0,0.0,0.0,-0.56,-30.75,41.37
142.496064,-0.31,0.38,-9.8,0.0,0.0,0.0,-1.0,-30.75,40.56
142.520066,-0.32,0.4,-9.75,0.0,0.0,0.0,-1.0,-30.75,40.56
142.540059,-0.32,0.41,-9.81,0.0,0.0,0.0,-0.56,-31.06,40.18
142.564058,-0.32,0.38,-9.74,0.0,0.0,0.0,-0.56,-31.06,40.18
142.584062,-0.3,0.36,-9.81,0.0,0.0,0.0,-0.56,-31.06,40.18
142.607984,-0.31,0.37,-9.73,0.0,0.0,0.0,-1.0,-31.5,39.75
142.631995,-0.34,0.4,-9.81,0.0,0.0,0.0,-1.0,-31.5,39.75
142.651984,-0.28,0.38,-9.77,0.0,0.0,0.0,-0.56,-31.06,39.75
142.675986,-0.32,0.38,-9.73,0.0,0.0,0.0,-0.56,-31.06,39.75
142.69592,-0.31,0.37,-9.81,0.0,0.0,0.0,-0.56,-31.06,40.56
142.720026,-0.33,0.4,-9.76,0.0,0.0,0.0,-0.56,-31.06,40.56
142.743981,-0.32,0.39,-9.78,0.0,0.0,0.0,-0.56,-31.06,40.56
142.763979,-0.31,0.39,-9.73,0.0,0.0,0.0,-0.56,-30.75,39.75
142.787985,-0.32,0.37,-9.78,0.0,0.0,0.0,-0.56,-30.75,39.75
142.81197,-0.31,0.39,-9.77,0.0,0.0,0.0,-0.56,-30.37,39.37
142.831914,-0.31,0.37,-9.82,0.0,0.0,0.0,-0.56,-30.37,39.37
142.855976,-0.32,0.38,-9.74,0.0,0.0,0.0,-0.56,-30.37,39.37
142.87998,-0.28,0.4,-9.78,0.0,0.0,0.0,-0.25,-30.37,40.56
142.899966,-0.32,0.38,-9.74,0.0,0.0,0.0,-0.25,-30.37,40.56
142.923978,-0.32,0.38,-9.81,0.0,0.0,0.0,-0.25,-30.75,39.75
142.943974,-0.32,0.37,-9.78,0.0,0.0,0.0,-0.25,-30.75,39.75
142.967979,-0.32,0.37,-9.78,0.0,0.0,0.0,-0.25,-30.75,39.75
142.991977,-0.31,0.41,-9.74,0.0,0.0,0.0,-0.25,-31.5,40.18
143.01202,-0.3,0.41,-9.76,0.0,0.0,0.0,-0.25,-31.5,40.18
143.03602,-0.33,0.38,-9.77,0.0,0.0,0.0,-1.0,-31.5,40.56
143.055984,-0.32,0.39,-9.8,0.0,0.0,0.0,-1.0,-31.5,40.56
143.08002,-0.32,0.38,-9.76,0.0,0.0,0.0,-1.0,-31.5,40.56
143.104019,-0.3,0.37,-9.77,0.0,0.0,0.0,-0.25,-30.75,41.37
143.123968,-0.31,0.41,-9.77,0.0,0.0,0.0,-0.25,-30.75,41.37
143.148018,-0.28,0.4,-9.77,0.0,0.0,0.0,-0.56,-31.06,40.56
143.172029,-0.3,0.39,-9.78,0.0,0.0,0.0,-0.56,-31.06,40.56
143.191964,-0.32,0.39,-9.76,0.0,0.0,0.0,-0.25,-30.75,40.56
143.215926,-0.31,0.41,-9.8,0.0,0.0,0.0,-0.25,-30.75,40.56
143.236009,-0.33,0.39,-9.77,0.0,0.0,0.0,-0.25,-30.75,40.56
143.259968,-0.32,0.39,-9.75,0.0,0.0,0.0,-0.25,-30.75,40.18
143.283953,-0.32,0.39,-9.77,0.0,0.0,0.0,-0.25,-30.75,40.18
143.304017,-0.32,0.39,-9.76,0.0,0.0,0.0,-1.0,-31.5,39.75
143.32791,-0.3,0.41,-9.78,0.0,0.0,0.0,-1.0,-31.5,39.75
143.352004,-0.33,0.4,-9.77,0.0,0.0,0.0,-1.0,-31.5,39.75
143.371967,-0.33,0.39,-9.77,0.0,0.0,0.0,-1.37,-30.75,41.0
143.395967,-0.32,0.38,-9.77,0.0,0.0,0.0,-1.37,-30.75,41.0
143.416014,-0.32,0.37,-9.76,0.0,0.0,0.0,-0.56,-31.06,41.75
143.440017,-0.31,0.41,-9.77,0.0,0.0,0.0,-0.56,-31.06,41.75
143.464032,-0.32,0.39,-9.77,0.0,0.0,0.0,-0.56,-31.06,41.75
143.496013,-0.32,0.42,-9.78,0.0,0.0,0.0,-1.37,-30.68,40.18
143.519903,-0.33,0.37,-9.77,0.0,0.0,0.0,-1.37,-30.68,40.18
143.539839,-0.34,0.37,-9.76,0.0,0.0,0.0,-1.0,-31.5,40.18
143.563862,-0.31,0.38,-9.77,0.0,0.0,0.0,-1.0,-31.5,40.18
143.587948,-0.31,0.37,-9.76,0.0,0.0,0.0,-1.0,-31.5,40.18
143.607919,-0.32,0.42,-9.77,0.0,0.0,0.0,-0.25,-30.75,40.56
143.631913,-0.31,0.38,-9.82,0.0,0.0,0.0,-1.0,-31.5,40.18
143.651959,-0.33,0.4,-9.71,0.0,0.0,0.0,0.06,-30.75,41.0
143.675918,-0.31,0.38,-9.83,0.0,0.0,0.0,0.06,-30.75,41.0
143.699957,-0.32,0.39,-9.75,0.0,0.0,0.0,-1.0,-31.06,40.18
143.719841,-0.31,0.39,-9.82,0.0,0.0,0.0,-1.0,-31.06,40.18
143.743805,-0.32,0.37,-9.76,0.0,0.0,0.0,-1.0,-31.06,40.18
143.767858,-0.31,0.39,-9.81,0.0,0.0,0.0,-1.0,-30.75,40.56
143.787935,-0.32,0.39,-9.73,0.0,0.0,0.0,-1.0,-30.75,40.56
143.811974,-0.28,0.41,-9.83,0.0,0.0,0.0,-0.25,-31.06,40.18
143.831951,-0.33,0.41,-9.71,0.0,0.0,0.0,-0.25,-31.06,40.18
143.855961,-0.33,0.38,-9.81,0.0,0.0,0.0,-0.25,-31.06,40.18
143.87993,-0.32,0.38,-9.69,0.0,0.0,0.0,-0.56,-30.37,39.37
143.899962,-0.28,0.41,-9.84,0.0,0.0,0.0,-0.56,-30.37,39.37
143.923908,-0.32,0.4,-9.72,0.0,0.0,0.0,-0.56,-30.75,40.56
143.94795,-0.31,0.4,-9.83,0.0,0.0,0.0,-0.56,-30.75,40.56
143.967952,-0.31,0.39,-9.74,0.0,0.0,0.0,-0.56,-30.75,40.56
143.991917,-0.32,0.37,-9.85,0.0,0.0,0.0,-0.56,-30.75,39.75
144.011935,-0.32,0.39,-9.77,0.0,0.0,0.0,-0.56,-30.75,39.75
144.03594,-0.3,0.38,-9.8,0.0,0.0,0.0,-0.56,-31.06,39.75
144.059916,-0.31,0.39,-9.77,0.0,0.0,0.0,-0.56,-31.06,39.75
144.079949,-0.31,0.41,-9.81,0.0,0.0,0.0,-0.56,-31.06,39.75
144.103852,-0.32,0.37,-9.74,0.0,0.0,0.0,-1.37,-31.06,39.75
144.127816,-0.32,0.37,-9.81,0.0,0.0,0.0,-1.37,-31.06,39.75
144.147922,-0.33,0.38,-9.74,0.0,0.0,0.0,-0.56,-30.37,40.56
144.171904,-0.31,0.38,-9.77,0.0,0.0,0.0,-0.56,-31.06,39.75
144.191983,-0.32,0.36,-9.77,0.0,0.0,0.0,-0.25,-31.06,40.56
144.215932,-0.32,0.38,-9.83,0.0,0.0,0.0,-0.25,-31.06,40.56
144.239986,-0.35,0.4,-9.71,0.0,0.0,0.0,-0.25,-31.06,40.56
144.259975,-0.32,0.38,-9.84,0.0,0.0,0.0,-1.0,-30.75,40.56
144.284018,-0.32,0.38,-9.75,0.0,0.0,0.0,-1.0,-30.75,40.56
144.307982,-0.32,0.39,-9.84,0.0,0.0,0.0,-1.0,-31.5,39.75
144.327983,-0.33,0.4,-9.77,0.0,0.0,0.0,-1.0,-31.5,39.75
144.352013,-0.31,0.38,-9.81,0.0,0.0,0.0,-1.0,-31.5,39.75
144.372014,-0.31,0.41,-9.77,0.0,0.0,0.0,-1.0,-31.06,39.75
144.396013,-0.31,0.37,-9.81,0.0,0.0,0.0,-1.0,-31.06,39.75
144.419749,-0.28,0.37,-9.73,0.0,0.0,0.0,-0.56,-31.5,40.56
144.439928,-0.32,0.38,-9.84,0.0,0.0,0.0,-0.56,-31.5,40.56
144.463986,-0.33,0.39,-9.74,0.0,0.0,0.0,-0.56,-31.5,40.56
144.488012,-0.32,0.39,-9.83,0.0,0.0,0.0,-0.25,-30.75,39.75
144.520015,-0.3,0.4,-9.75,0.0,0.0,0.0,-0.25,-30.75,39.75
144.543832,-0.31,0.39,-9.78,0.0,0.0,0.0,-0.56,-30.0,40.18
144.564009,-0.32,0.41,-9.75,0.0,0.0,0.0,-0.56,-30.0,40.18
144.588107,-0.3,0.36,-9.77,0.0,0.0,0.0,-0.56,-30.0,40.18
144.62012,-0.32,0.39,-9.74,0.0,0.0,0.0,-1.0,-30.75,39.37
144.644028,-0.32,0.38,-9.77,0.0,0.0,0.0,-0.56,-30.37,40.18
144.668059,-0.31,0.39,-9.77,0.0,0.0,0.0,-0.56,-30.37,40.18
144.688056,-0.31,0.38,-9.76,0.0,0.0,0.0,-0.56,-31.06,40.56
144.712096,-0.32,0.38,-9.77,0.0,0.0,0.0,-0.56,-31.06,40.56
144.731975,-0.28,0.4,-9.77,0.0,0.0,0.0,-0.56,-31.06,40.56
144.755999,-0.32,0.37,-9.78,0.0,0.0,0.0,-1.0,-30.0,39.37
144.780068,-0.31,0.38,-9.8,0.0,0.0,0.0,-1.0,-30.0,39.37
144.800017,-0.32,0.37,-9.76,0.0,0.0,0.0,-0.56,-30.37,40.18
144.824097,-0.32,0.39,-9.84,0.0,0.0,0.0,-0.56,-30.37,40.18
144.848069,-0.32,0.4,-9.74,0.0,0.0,0.0,-0.56,-30.37,40.18
144.868067,-0.31,0.38,-9.83,0.0,0.0,0.0,-0.56,-31.5,39.75
144.892061,-0.31,0.38,-9.73,0.0,0.0,0.0,-0.56,-31.5,39.75
144.912075,-0.31,0.36,-9.77,0.0,0.0,0.0,0.06,-30.75,39.75
144.9361,-0.33,0.38,-9.74,0.0,0.0,0.0,0.06,-30.75,39.75
144.959998,-0.32,0.4,-9.77,0.0,0.0,0.0,0.06,-30.75,39.75
144.98011,-0.32,0.4,-9.74,0.0,0.0,0.0,-1.0,-30.75,41.37
145.004108,-0.3,0.37,-9.8,0.0,0.0,0.0,-1.0,-30.75,41.37
145.028114,-0.31,0.38,-9.74,0.0,0.0,0.0,-0.56,-30.75,40.56
145.048101,-0.3,0.36,-9.82,0.0,0.0,0.0,-0.56,-30.75,40.56
145.072071,-0.32,0.37,-9.75,0.0,0.0,0.0,-0.56,-30.75,40.56
145.092076,-0.3,0.37,-9.78,0.0,0.0,0.0,-1.0,-30.37,41.37
145.11607,-0.3,0.4,-9.77,0.0,0.0,0.0,-1.0,-30.37,41.37
145.140042,-0.32,0.38,-9.77,0.0,0.0,0.0,-0.56,-30.75,40.56
145.163672,-0.33,0.39,-9.77,0.0,0.0,0.0,-0.56,-30.75,40.56
145.183543,-0.32,0.37,-9.77,0.0,0.0,0.0,-0.56,-30.75,40.56
145.207662,-0.33,0.4,-9.77,0.0,0.0,0.0,-1.0,-30.75,39.75
145.227896,-0.31,0.38,-9.78,0.0,0.0,0.0,-1.0,-30.75,39.75
145.25194,-0.32,0.39,-9.76,0.0,0.0,0.0,-0.25,-30.75,39.75
145.27195,-0.32,0.4,-9.77,0.0,0.0,0.0,-0.25,-30.75,39.75
145.296067,-0.31,0.39,-9.77,0.0,0.0,0.0,-1.0,-31.06,41.0
145.328109,-0.33,0.41,-9.78,0.0,0.0,0.0,-1.0,-31.06,41.0
145.352102,-0.33,0.4,-9.8,0.0,0.0,0.0,-1.0,-31.06,41.0
145.37599,-0.33,0.38,-9.74,0.0,0.0,0.0,-1.0,-31.5,41.0
145.396112,-0.28,0.37,-9.77,0.0,0.0,0.0,-1.0,-31.5,41.0
145.420097,-0.33,0.36,-9.75,0.0,0.0,0.0,-0.56,-31.06,39.75
145.444073,-0.31,0.4,-9.78,0.0,0.0,0.0,-0.56,-31.06,39.75
145.464103,-0.34,0.39,-9.77,0.0,0.0,0.0,-0.56,-31.06,39.75
145.488099,-0.33,0.39,-9.77,0.0,0.0,0.0,-1.37,-31.06,41.37
145.50807,-0.32,0.39,-9.74,0.0,0.0,0.0,-1.37,-31.06,41.37
145.532104,-0.32,0.4,-9.77,0.0,0.0,0.0,-0.56,-31.06,39.75
145.555988,-0.32,0.39,-9.77,0.0,0.0,0.0,-0.56,-31.06,39.75
145.576065,-0.32,0.38,-9.77,0.0,0.0,0.0,-0.56,-31.06,39.75
145.600087,-0.31,0.4,-9.77,0.0,0.0,0.0,-1.0,-31.06,40.18
145.624069,-0.32,0.39,-9.77,0.0,0.0,0.0,-1.0,-31.06,40.18
145.644066,-0.3,0.4,-9.75,0.0,0.0,0.0,-0.56,-30.37,40.56
145.668067,-0.33,0.37,-9.81,0.0,0.0,0.0,-0.56,-30.37,40.56
145.688,-0.31,0.4,-9.77,0.0,0.0,0.0,-0.56,-30.37,40.56
145.71205,-0.31,0.39,-9.76,0.0,0.0,0.0,-0.56,-30.75,40.56
145.736052,-0.3,0.38,-9.77,0.0,0.0,0.0,-0.56,-30.75,40.56
145.756062,-0.32,0.41,-9.78,0.0,0.0,0.0,-0.56,-31.06,40.18
145.780063,-0.32,0.4,-9.76,0.0,0.0,0.0,-0.56,-31.06,40.18
145.804062,-0.32,0.38,-9.77,0.0,0.0,0.0,-0.25,-30.37,39.75
145.824064,-0.32,0.39,-9.82,0.0,0.0,0.0,-0.25,-30.37,39.75
145.848061,-0.32,0.38,-9.77,0.0,0.0,0.0,-0.25,-30.37,39.75
145.86805,-0.32,0.37,-9.76,0.0,0.0,0.0,-0.56,-30.75,40.56
145.892073,-0.32,0.39,-9.76,0.0,0.0,0.0,-0.56,-30.75,40.56
145.915927,-0.33,0.41,-9.78,0.0,0.0,0.0,-0.56,-30.75,40.18
145.935976,-0.31,0.4,-9.77,0.0,0.0,0.0,-0.56,-30.75,40.18
145.960053,-0.31,0.39,-9.78,0.0,0.0,0.0,-0.56,-30.75,40.18
145.984047,-0.32,0.37,-9.72,0.0,0.0,0.0,-1.0,-30.75,39.75
146.003931,-0.31,0.38,-9.78,0.0,0.0,0.0,-1.0,-30.75,39.75
146.028063,-0.32,0.39,-9.72,0.0,0.0,0.0,-1.0,-31.06,40.56
146.047913,-0.32,0.42,-9.81,0.0,0.0,0.0,-1.0,-31.06,40.56
146.07193,-0.31,0.41,-9.73,0.0,0.0,0.0,-1.0,-31.06,40.56
146.095782,-0.32,0.41,-9.75,0.0,0.0,0.0,-1.75,-30.75,41.0
146.115916,-0.31,0.37,-9.77,0.0,0.0,0.0,-1.75,-30.75,41.0
146.139925,-0.33,0.35,-9.82,0.0,0.0,0.0,-0.25,-30.75,41.37
146.159919,-0.33,0.41,-9.8,0.0,0.0,0.0,-0.25,-30.75,41.37
146.183911,-0.32,0.41,-9.83,0.0,0.0,0.0,-0.25,-30.75,41.37
146.207882,-0.32,0.39,-9.77,0.0,0.0,0.0,-0.56,-30.0,40.18
146.227819,-0.31,0.36,-9.8,0.0,0.0,0.0,-0.56,-30.0,40.18
146.25185,-0.32,0.38,-9.77,0.0,0.0,0.0,-1.37,-31.06,40.56
146.275892,-0.31,0.39,-9.74,0.0,0.0,0.0,-1.37,-31.06,40.56
146.295658,-0.31,0.39,-9.77,0.0,0.0,0.0,-0.56,-30.75,40.18
146.320082,-0.31,0.37,-9.8,0.0,0.0,0.0,-0.56,-30.75,40.18
146.344077,-0.32,0.37,-9.77,0.0,0.0,0.0,-0.56,-30.75,40.18
146.364072,-0.32,0.4,-9.75,0.0,0.0,0.0,-0.25,-31.5,40.56
146.388067,-0.3,0.39,-9.77,0.0,0.0,0.0,-0.25,-31.5,40.56
146.408071,-0.3,0.38,-9.77,0.0,0.0,0.0,0.06,-31.06,40.56
146.431982,-0.31,0.37,-9.76,0.0,0.0,0.0,0.06,-31.06,40.56
146.456,-0.33,0.38,-9.77,0.0,0.0,0.0,0.06,-31.06,40.56
146.475918,-0.34,0.4,-9.77,0.0,0.0,0.0,-1.0,-30.75,39.75
146.49991,-0.32,0.39,-9.77,0.0,0.0,0.0,-1.0,-30.75,39.75
146.519952,-0.31,0.38,-9.78,0.0,0.0,0.0,-0.25,-30.0,40.18
146.543923,-0.32,0.4,-9.77,0.0,0.0,0.0,-0.25,-30.0,40.18
146.567959,-0.32,0.39,-9.77,0.0,0.0,0.0,-0.25,-30.0,40.18
146.587911,-0.32,0.37,-9.8,0.0,0.0,0.0,-1.0,-30.75,39.75
146.611959,-0.3,0.38,-9.81,0.0,0.0,0.0,-1.0,-30.75,39.75
146.635947,-0.32,0.41,-9.77,0.0,0.0,0.0,-1.0,-30.75,40.18
146.655919,-0.28,0.39,-9.81,0.0,0.0,0.0,-1.0,-30.75,40.18
146.679902,-0.28,0.36,-9.81,0.0,0.0,0.0,-1.0,-30.75,40.18
146.699952,-0.32,0.39,-9.76,0.0,0.0,0.0,-1.37,-31.06,40.18
146.723948,-0.32,0.39,-9.77,0.0,0.0,0.0,-1.37,-31.06,40.18
146.747959,-0.33,0.4,-9.78,0.0,0.0,0.0,-1.0,-31.06,40.18
146.767946,-0.28,0.42,-9.74,0.0,0.0,0.0,-1.0,-31.06,40.18
146.791935,-0.33,0.39,-9.75,0.0,0.0,0.0,-0.56,-31.18,40.56
146.815946,-0.32,0.39,-9.77,0.0,0.0,0.0,-0.56,-31.18,40.56
146.835952,-0.28,0.41,-9.74,0.0,0.0,0.0,-0.56,-31.18,40.56
146.859911,-0.32,0.39,-9.8,0.0,0.0,0.0,-1.0,-30.68,40.18
146.879933,-0.33,0.39,-9.73,0.0,0.0,0.0,-1.0,-30.68,40.18
146.903952,-0.33,0.39,-9.77,0.0,0.0,0.0,-0.25,-30.75,41.0
146.927948,-0.34,0.38,-9.77,0.0,0.0,0.0,-0.25,-30.75,41.0
146.947908,-0.31,0.38,-9.8,0.0,0.0,0.0,-0.25,-30.75,41.0
146.971921,-0.31,0.36,-9.73,0.0,0.0,0.0,-0.25,-30.0,41.0
146.995944,-0.3,0.41,-9.77,0.0,0.0,0.0,-0.25,-30.0,41.0
147.015947,-0.31,0.37,-9.81,0.0,0.0,0.0,-1.0,-30.68,39.0
147.03991,-0.33,0.42,-9.78,0.0,0.0,0.0,-1.0,-30.68,39.0
147.059963,-0.34,0.39,-9.77,0.0,0.0,0.0,-1.0,-30.68,39.0
147.083924,-0.32,0.38,-9.77,0.0,0.0,0.0,-1.0,-30.75,39.75
147.107913,-0.3,0.39,-9.73,0.0,0.0,0.0,-1.0,-30.75,39.75
147.127965,-0.33,0.39,-9.8,0.0,0.0,0.0,-0.25,-30.37,40.18
147.151944,-0.33,0.4,-9.77,0.0,0.0,0.0,-0.25,-30.37,40.18
147.17577,-0.33,0.4,-9.76,0.0,0.0,0.0,-0.25,-30.37,40.18
147.195959,-0.3,0.41,-9.77,0.0,0.0,0.0,-1.37,-30.75,41.0
147.219959,-0.3,0.36,-9.76,0.0,0.0,0.0,-1.37,-30.75,41.0
147.23989,-0.32,0.41,-9.76,0.0,0.0,0.0,-0.56,-30.37,39.75
147.263906,-0.31,0.39,-9.81,0.0,0.0,0.0,-0.56,-30.37,39.75
147.287864,-0.32,0.41,-9.75,0.0,0.0,0.0,-0.56,-30.37,39.75
147.307851,-0.3,0.39,-9.78,0.0,0.0,0.0,0.06,-31.06,39.75
147.331987,-0.33,0.39,-9.8,0.0,0.0,0.0,-0.56,-30.75,40.18
147.355966,-0.32,0.41,-9.77,0.0,0.0,0.0,-1.0,-31.5,40.56
147.387974,-0.32,0.4,-9.78,0.0,0.0,0.0,-1.0,-31.5,40.56
147.412001,-0.31,0.39,-9.77,0.0,0.0,0.0,-1.0,-30.37,40.56
147.431999,-0.32,0.4,-9.77,0.0,0.0,0.0,-1.0,-30.37,40.56
147.455973,-0.31,0.38,-9.77,0.0,0.0,0.0,-1.0,-30.37,40.56
147.475983,-0.33,0.39,-9.78,0.0,0.0,0.0,-1.0,-31.5,41.37
147.499998,-0.31,0.39,-9.77,0.0,0.0,0.0,-1.0,-31.5,41.37
147.524021,-0.3,0.38,-9.77,0.0,0.0,0.0,-0.25,-30.37,40.56
147.544025,-0.31,0.38,-9.78,0.0,0.0,0.0,-0.25,-30.37,40.56
147.567882,-0.31,0.39,-9.75,0.0,0.0,0.0,-1.0,-30.75,40.56
147.591956,-0.32,0.4,-9.77,0.0,0.0,0.0,-1.0,-30.75,40.56
147.612002,-0.32,0.38,-9.77,0.0,0.0,0.0,-1.0,-30.75,40.56
147.636008,-0.31,0.39,-9.77,0.0,0.0,0.0,-0.56,-30.75,40.56
147.655967,-0.32,0.35,-9.82,0.0,0.0,0.0,-0.56,-30.75,40.56
147.679967,-0.3,0.39,-9.77,0.0,0.0,0.0,-0.56,-30.75,40.56
147.703962,-0.32,0.42,-9.77,0.0,0.0,0.0,-0.25,-30.75,41.0
147.723921,-0.34,0.4,-9.8,0.0,0.0,0.0,-0.25,-30.75,41.0
147.747896,-0.34,0.38,-9.76,0.0,0.0,0.0,-0.25,-30.37,41.75
147.771861,-0.31,0.4,-9.77,0.0,0.0,0.0,-0.56,-31.06,41.0
147.791901,-0.35,0.42,-9.77,0.0,0.0,0.0,-0.56,-30.75,39.75
147.815883,-0.32,0.39,-9.78,0.0,0.0,0.0,-0.56,-30.75,39.75
147.835953,-0.28,0.38,-9.76,0.0,0.0,0.0,-1.0,-31.06,40.56
147.860018,-0.28,0.39,-9.76,0.0,0.0,0.0,-1.0,-31.06,40.56
147.884004,-0.32,0.37,-9.78,0.0,0.0,0.0,-1.0,-31.06,40.56
147.903961,-0.32,0.38,-9.78,0.0,0.0,0.0,-0.56,-30.0,39.75
147.928005,-0.32,0.38,-9.77,0.0,0.0,0.0,-0.56,-30.0,39.75
147.952005,-0.31,0.41,-9.77,0.0,0.0,0.0,-1.0,-31.5,39.75
147.971956,-0.3,0.41,-9.8,0.0,0.0,0.0,-1.0,-31.5,39.75
147.995992,-0.32,0.38,-9.78,0.0,0.0,0.0,-1.0,-31.5,39.75
148.01601,-0.34,0.4,-9.77,0.0,0.0,0.0,-1.37,-30.37,40.18
148.03995,-0.32,0.42,-9.77,0.0,0.0,0.0,-1.37,-30.37,40.18
148.063993,-0.31,0.4,-9.77,0.0,0.0,0.0,-1.0,-30.75,40.56
148.084001,-0.32,0.38,-9.76,0.0,0.0,0.0,-1.0,-30.75,40.56
148.107955,-0.28,0.38,-9.78,0.0,0.0,0.0,-1.0,-30.75,40.56
148.132004,-0.31,0.39,-9.76,0.0,0.0,0.0,-1.75,-29.68,41.37
148.151996,-0.32,0.4,-9.8,0.0,0.0,0.0,-1.75,-29.68,41.37
148.175969,-0.33,0.37,-9.81,0.0,0.0,0.0,-2.06,-30.75,40.56
148.195998,-0.34,0.38,-9.78,0.0,0.0,0.0,-2.06,-30.75,40.56
148.219868,-0.28,0.37,-9.76,0.0,0.0,0.0,-2.06,-30.75,40.56
148.243888,-0.32,0.39,-9.76,0.0,0.0,0.0,-1.75,-30.37,40.18
148.263998,-0.33,0.42,-9.8,0.0,0.0,0.0,-1.75,-30.37,40.18
148.287979,-0.32,0.39,-9.75,0.0,0.0,0.0,-2.5,-30.0,39.75
148.311968,-0.31,0.39,-9.77,0.0,0.0,0.0,-2.5,-30.0,40.56
148.331999,-0.32,0.4,-9.77,0.0,0.0,0.0,-2.06,-30.75,38.56
148.355962,-0.32,0.41,-9.77,0.0,0.0,0.0,-2.06,-30.75,38.56
148.375995,-0.28,0.39,-9.76,0.0,0.0,0.0,-2.06,-30.75,38.56
148.399821,-0.31,0.37,-9.77,0.0,0.0,0.0,-2.5,-30.75,39.75
148.423951,-0.31,0.4,-9.77,0.0,0.0,0.0,-2.5,-30.75,39.75
148.443973,-0.34,0.39,-9.77,0.0,0.0,0.0,-2.06,-30.0,39.75
148.468004,-0.34,0.42,-9.77,0.0,0.0,0.0,-2.06,-30.0,39.75
148.492035,-0.32,0.4,-9.78,0.0,0.0,0.0,-2.06,-30.0,39.75
148.511989,-0.32,0.4,-9.68,0.0,0.0,0.0,-2.5,-30.37,39.37
148.535995,-0.28,0.39,-9.83,0.0,0.0,0.0,-2.5,-30.37,39.37
148.555961,-0.34,0.4,-9.73,0.0,0.0,0.0,-2.87,-29.68,39.75
148.580006,-0.34,0.38,-9.82,0.0,0.0,0.0,-2.87,-29.68,39.75
148.603976,-0.32,0.39,-9.75,0.0,0.0,0.0,-2.87,-29.68,39.75
148.623983,-0.31,0.4,-9.77,0.0,0.0,0.0,-2.87,-29.68,39.75
148.647929,-0.32,0.39,-9.72,0.0,0.0,0.0,-2.87,-29.68,39.75
148.671969,-0.32,0.38,-9.81,0.0,0.0,0.0,-3.56,-30.0,39.37
148.691949,-0.34,0.41,-9.75,0.0,0.0,0.0,-3.56,-30.0,39.37
148.716011,-0.32,0.43,-9.8,0.0,0.0,0.0,-3.56,-30.0,39.37
148.735902,-0.33,0.39,-9.69,0.0,0.0,0.0,-4.0,-29.68,39.75
148.760014,-0.28,0.38,-9.8,0.0,0.0,0.0,-4.0,-29.68,39.75
148.784101,-0.33,0.4,-9.76,0.0,0.0,0.0,-4.0,-29.25,39.37
148.804067,-0.3,0.42,-9.81,0.0,0.0,0.0,-4.0,-29.25,39.37
148.828077,-0.33,0.41,-9.76,0.0,0.0,0.0,-4.0,-29.25,39.37
148.852118,-0.34,0.4,-9.75,0.0,0.0,0.0,-3.56,-29.68,38.25
148.872052,-0.33,0.4,-9.82,0.0,0.0,0.0,-3.56,-29.68,38.25
148.896049,-0.34,0.41,-9.75,0.0,0.0,0.0,-3.56,-29.25,39.75
148.9161,-0.32,0.38,-9.77,0.0,0.0,0.0,-3.56,-29.25,39.75
148.940063,-0.31,0.39,-9.77,0.0,0.0,0.0,-4.0,-29.68,39.37
148.964106,-0.3,0.38,-9.77,0.0,0.0,0.0,-4.0,-29.68,39.37
148.984097,-0.32,0.4,-9.77,0.0,0.0,0.0,-4.0,-29.68,39.37
149.008058,-0.32,0.39,-9.8,0.0,0.0,0.0,-2.87,-28.87,40.18
149.028112,-0.32,0.39,-9.77,0.0,0.0,0.0,-2.87,-28.87,40.18
149.052102,-0.3,0.39,-9.77,0.0,0.0,0.0,-2.87,-30.0,39.37
149.076087,-0.28,0.4,-9.78,0.0,0.0,0.0,-2.87,-30.0,39.37
149.096085,-0.31,0.38,-9.77,0.0,0.0,0.0,-2.87,-30.0,39.37
149.120066,-0.32,0.4,-9.76,0.0,0.0,0.0,-3.56,-28.87,39.37
149.143997,-0.31,0.39,-9.77,0.0,0.0,0.0,-3.56,-28.87,39.37
149.164072,-0.28,0.36,-9.77,0.0,0.0,0.0,-3.56,-29.68,39.0
149.187994,-0.3,0.37,-9.78,0.0,0.0,0.0,-3.56,-29.68,39.0
149.207902,-0.31,0.4,-9.77,0.0,0.0,0.0,-3.56,-29.68,39.0
149.231972,-0.31,0.4,-9.77,0.0,0.0,0.0,-2.87,-28.87,39.37
149.255973,-0.31,0.4,-9.8,0.0,0.0,0.0,-2.87,-28.87,39.37
149.275981,-0.33,0.39,-9.73,0.0,0.0,0.0,-3.56,-30.0,39.75
149.299963,-0.28,0.39,-9.78,0.0,0.0,0.0,-3.56,-30.0,39.75
149.323969,-0.3,0.4,-9.74,0.0,0.0,0.0,-3.56,-30.0,39.75
149.343812,-0.32,0.4,-9.77,0.0,0.0,0.0,-3.56,-29.68,39.37
149.367806,-0.32,0.4,-9.77,0.0,0.0,0.0,-3.56,-29.68,39.37
149.387807,-0.3,0.37,-9.75,0.0,0.0,0.0,-3.56,-30.0,39.75
149.423811,-0.31,0.39,-9.78,0.0,0.0,0.0,-3.56,-30.0,39.75
149.447904,-0.33,0.4,-9.76,0.0,0.0,0.0,-3.25,-29.68,39.37
149.467909,-0.32,0.37,-9.78,0.0,0.0,0.0,-3.25,-29.68,39.37
149.491914,-0.32,0.37,-9.71,0.0,0.0,0.0,-3.25,-29.68,39.37
149.51191,-0.28,0.36,-9.83,0.0,0.0,0.0,-4.0,-29.68,39.75
149.535921,-0.34,0.4,-9.75,0.0,0.0,0.0,-4.0,-29.68,39.75
149.559913,-0.35,0.39,-9.81,0.0,0.0,0.0,-3.56,-30.0,40.18
149.579928,-0.34,0.4,-9.77,0.0,0.0,0.0,-3.56,-30.0,40.18
149.603919,-0.31,0.37,-9.77,0.0,0.0,0.0,-3.56,-30.0,40.18
149.627921,-0.28,0.37,-9.71,0.0,0.0,0.0,-2.87,-29.25,40.18
149.647824,-0.31,0.35,-9.48,0.0,0.0,0.0,-2.87,-29.25,40.18
149.671813,-0.28,0.36,-10.09,0.0,0.0,0.0,-3.56,-29.25,39.0
149.691799,-0.36,0.46,-9.64,0.0,0.0,0.0,-3.56,-29.25,39.0
149.715864,-0.32,0.38,-10.01,0.0,0.0,0.0,-3.56,-29.25,39.0
149.739813,-0.3,0.38,-9.57,0.0,0.0,0.0,-3.25,-30.0,41.37
149.759813,-0.31,0.34,-9.77,0.0,0.0,0.0,-3.25,-30.0,41.37
149.78381,-0.35,0.37,-9.63,0.0,0.0,0.0,-3.56,-29.68,38.56
149.80382,-0.36,0.42,-9.9,0.0,0.0,0.0,-3.56,-29.68,38.56
149.827808,-0.36,0.45,-9.67,0.0,0.0,0.0,-3.56,-29.68,38.56
149.851824,-0.39,0.41,-9.73,0.0,0.0,0.0,-4.0,-29.68,39.75
149.871922,-0.77,4.11,-9.19,0.42,0.25,-1.28,-4.0,-29.68,39.75
149.895915,6.89,-9.69,-16.04,0.06,-0.09,-0.57,-3.56,-29.25,40.18
149.919895,0.72,3.05,-9.5,0.96,0.39,0.18,-3.56,-29.25,40.18
149.939904,6.44,3.72,-8.96,1.1,0.31,1.71,-1.68,-28.87,39.37
149.963946,2.2,1.66,-11.47,0.95,0.46,5.06,-1.68,-28.87,39.37
149.987907,-5.34,0.73,-12.13,1.09,-0.03,5.88,-1.68,-28.87,39.37
150.007961,0.35,1.95,-7.28,1.53,-1.71,5.58,-5.37,-28.18,41.37
150.031945,-2.66,0.05,-11.58,0.18,-2.44,5.22,-5.37,-28.18,41.37
150.05193,-2.73,-0.35,-14.53,-0.25,-3.78,5.81,-13.25,-21.37,44.25
150.075927,-5.05,-0.37,-15.33,0.03,-4.45,6.56,-13.25,-21.37,44.25
150.099957,-5.07,-0.35,-16.12,0.54,-5.33,6.8,-13.25,-21.37,44.25
150.119925,-7.27,0.23,-14.64,1.27,-5.6,5.38,-14.25,-17.75,47.56
150.143941,-9.74,3.71,-12.57,1.2,-6.3,3.66,-14.25,-17.75,47.56
150.163391,-11.48,5.35,-10.52,0.95,-5.56,1.65,-10.37,-11.68,50.56
150.187794,-9.39,3.58,-9.19,1.08,-3.8,-0.61,-10.37,-11.68,50.56
150.211676,-8.33,1.58,-9.38,0.95,-2.5,-1.3,-10.37,-11.68,50.56
150.231816,-7.89,0.7,-8.58,1.04,-1.52,-1.63,1.68,-9.06,52.5
150.255836,-7.77,0.33,-8.77,0.79,-1.12,-1.53,1.68,-9.06,52.5
150.279907,-5.98,-0.98,-8.52,0.62,-1.09,-1.33,8.56,-5.25,52.06
150.299893,-7.56,-2.93,-9.43,0.53,-1.0,-0.72,8.56,-5.25,52.06
150.32386,-5.87,-2.8,-7.77,0.88,-0.79,-0.7,8.56,-5.25,52.06
150.343919,-5.09,-1.74,-6.42,0.97,-0.43,-0.72,12.68,-2.18,50.68
150.367905,-3.12,-1.06,-3.59,1.09,0.43,-1.4,12.68,-2.18,50.68
150.391911,-4.25,-2.7,-5.84,0.92,2.07,-1.67,13.5,4.68,48.87
150.411907,-4.11,-2.09,-5.25,0.6,2.0,-1.29,13.5,4.68,48.87
150.447917,-4.01,-2.16,-5.2,0.46,1.97,-1.09,9.5,8.68,50.25
150.467972,-2.11,-2.6,-5.33,0.33,2.29,-1.11,9.5,8.68,50.25
150.492013,-2.06,-2.86,-6.52,0.15,2.24,-0.73,9.5,8.68,50.25
150.515997,-1.9,-2.96,-7.08,0.3,1.89,-0.31,5.0,10.06,51.06
150.535967,-2.17,-1.91,-6.58,0.4,1.82,-0.24,5.0,10.06,51.06
150.560021,-1.99,-1.7,-6.26,0.38,1.76,0.06,-0.25,11.56,48.87
150.584005,-2.11,-1.25,-6.06,0.29,1.67,0.43,-0.25,11.56,48.87
150.603961,-1.44,-1.31,-6.31,0.21,1.66,1.11,-0.25,11.56,48.87
150.628,-2.4,-1.6,-7.32,0.23,1.78,1.7,-3.56,11.56,50.0
150.647992,-2.29,-2.04,-7.74,0.33,1.6,2.06,-3.56,11.56,50.0
150.671956,-1.55,-2.04,-7.23,0.16,1.39,1.85,-6.68,13.0,47.5
150.696002,-1.66,-1.29,-6.58,0.32,1.47,1.49,-6.68,13.0,47.5
150.715901,-2.61,-1.71,-7.68,0.33,1.42,1.66,-6.68,13.0,47.5
150.739852,-3.45,-2.82,-9.89,0.52,1.69,1.92,-10.06,13.5,45.5
150.763949,-6.43,-5.23,-13.43,0.91,1.58,2.5,-10.06,13.5,45.5
150.783992,-8.35,-4.97,-13.6,1.52,0.8,3.19,-12.37,15.25,43.75
150.80802,-7.73,-4.12,-10.49,1.66,0.25,3.14,-12.37,15.25,43.75
150.827881,-8.06,-2.68,-5.26,0.75,0.73,0.48,-9.5,23.37,39.18
150.851968,-7.52,-3.04,-5.66,0.59,0.55,0.36,-9.5,23.37,39.18
150.876,-6.83,-3.09,-5.54,0.43,0.44,0.25,-9.5,23.37,39.18
150.896006,-5.72,-3.42,-5.72,0.22,0.43,0.2,-9.56,25.0,39.06
150.919955,-4.87,-3.9,-6.42,0.04,0.38,0.2,-9.56,25.0,39.06
150.93997,-3.82,-4.18,-6.88,0.11,0.45,0.02,-8.87,27.25,38.56
150.963908,-4.24,-4.38,-7.97,0.23,0.59,-0.18,-8.87,27.25,38.56
150.987852,-4.19,-4.29,-7.78,0.23,0.35,-0.16,-8.87,27.25,38.56
151.008008,-3.7,-3.45,-6.62,0.23,0.15,-0.03,-10.37,27.25,37.68
151.031874,-3.71,-3.44,-6.57,0.11,0.11,0.17,-10.37,27.25,37.68
151.055857,-3.64,-4.17,-7.2,0.08,0.18,0.3,-9.37,27.68,38.0
151.075881,-3.98,-4.4,-7.43,0.16,0.24,0.23,-9.37,27.68,38.0
151.099859,-3.32,-4.13,-6.85,0.19,0.28,0.13,-9.37,27.68,38.0
151.119817,-3.64,-3.99,-6.71,0.1,0.32,0.23,-10.5,27.75,36.68
151.143915,-4.5,-4.59,-7.53,0.03,0.25,0.09,-10.5,27.75,36.68
151.167968,-4.41,-4.88,-7.83,0.15,0.13,0.07,-10.06,28.87,35.87
151.18795,-4.45,-4.54,-7.5,0.13,0.05,0.08,-10.06,28.87,35.87
151.212004,-4.48,-4.13,-7.24,0.11,0.05,0.07,-10.06,28.87,35.87
151.23586,-4.63,-4.32,-7.61,0.05,0.04,0.09,-9.68,28.5,36.18
151.255929,-3.92,-4.67,-7.97,0.02,0.0,0.24,-9.68,28.5,36.18
151.279904,-4.05,-4.59,-7.95,0.01,-0.02,0.19,-10.87,29.25,35.75
151.299991,-3.39,-4.33,-7.37,0.06,0.03,0.04,-10.87,29.25,35.75
151.323978,-3.37,-4.45,-7.45,0.05,0.15,-0.11,-10.87,29.25,35.75
151.347992,-3.39,-4.63,-7.73,0.07,0.12,-0.08,-10.06,28.87,35.75
151.367943,-3.61,-4.43,-7.63,-0.03,-0.08,0.14,-9.37,29.75,36.56
151.391901,-3.62,-4.42,-7.62,-0.01,-0.09,0.13,-10.18,29.37,36.18
151.415916,-3.8,-4.32,-7.49,-0.06,-0.11,0.24,-10.18,29.37,36.18
151.43596,-4.11,-4.43,-7.68,-0.12,-0.14,0.31,-9.5,29.75,35.68
151.460048,-4.25,-4.43,-7.85,-0.12,-0.12,0.13,-9.5,29.75,35.68
151.480009,-4.04,-4.66,-8.14,-0.05,-0.05,0.01,-9.5,29.75,35.68
151.503957,-4.23,-4.79,-8.27,0.04,-0.06,-0.01,-9.5,28.56,36.5
151.528021,-3.92,-4.38,-7.64,0.04,-0.15,0.18,-9.5,28.56,36.5
151.54801,-3.99,-3.95,-7.39,0.01,-0.14,0.15,-8.68,28.56,36.5
151.571956,-3.93,-4.32,-7.62,0.03,0.0,-0.1,-8.68,28.56,36.5
151.595924,-3.9,-4.45,-7.8,0.0,0.0,-0.13,-8.68,28.56,36.5
151.61588,-3.84,-4.34,-7.84,0.0,-0.01,-0.18,-8.0,29.0,36.06
151.6399,-3.66,-4.18,-7.74,-0.01,-0.04,-0.12,-8.0,29.0,36.06
151.659989,-3.23,-4.17,-7.76,-0.02,-0.02,-0.11,-8.68,29.37,35.37
151.683967,-3.15,-4.5,-8.1,-0.02,0.0,-0.08,-8.68,29.37,35.37
151.707792,-3.15,-4.36,-8.02,-0.01,-0.02,0.03,-8.68,29.37,35.37
151.728003,-3.26,-4.28,-7.81,-0.01,0.0,0.1,-8.0,29.37,36.06
151.751959,-3.59,-4.42,-8.09,0.0,0.05,0.01,-8.0,29.37,36.06
151.77601,-3.66,-4.43,-8.08,0.0,-0.01,0.04,-8.25,29.0,36.5
151.796001,-3.62,-4.28,-7.85,0.0,-0.05,0.08,-8.25,29.0,36.5
151.820077,-3.49,-4.3,-7.65,0.0,-0.09,0.14,-8.25,29.0,36.5
151.840108,-3.58,-4.3,-7.7,0.0,-0.08,0.15,-9.06,29.75,36.87
151.864101,-3.61,-4.2,-7.54,0.02,-0.04,0.08,-9.06,29.75,36.87
151.888065,-3.98,-4.2,-7.64,0.02,-0.02,0.0,-8.25,29.75,36.5
151.907916,-3.97,-4.34,-7.83,0.02,0.03,-0.24,-8.68,30.5,36.87
151.932106,-3.9,-4.15,-7.7,-0.01,0.02,-0.12,-8.0,29.37,36.87
151.956059,-3.89,-4.4,-7.98,-0.02,0.05,-0.16,-8.0,29.37,36.87
151.976095,-3.93,-4.59,-8.25,-0.03,0.06,-0.14,-8.0,29.37,36.87
152.000108,-3.81,-4.51,-8.16,0.02,0.06,-0.13,-8.68,29.75,36.87
152.020037,-3.7,-4.38,-8.02,0.08,0.07,-0.11,-8.68,29.75,36.87
152.044101,-3.08,-4.55,-7.97,0.15,0.16,-0.15,-9.06,29.37,36.87
152.068061,-2.25,-4.79,-8.02,0.29,0.39,-0.24,-9.06,29.37,36.87
152.088028,-2.52,-4.94,-8.23,0.54,0.81,-0.23,-9.06,29.37,36.87
152.112105,-4.08,-5.18,-9.07,1.0,1.29,0.0,-9.06,29.75,35.37
152.135994,-6.74,-4.28,-9.44,1.7,0.9,1.44,-9.06,29.75,35.37
152.156079,-8.77,-4.96,-9.86,1.41,-0.12,3.56,-11.0,30.87,34.87
152.180035,-7.84,-2.9,-7.99,-0.05,-2.09,4.06,-11.0,30.87,34.87
152.200043,-7.83,3.12,-1.65,-1.63,-3.23,4.6,-11.0,30.87,34.87
152.223919,-14.23,6.71,0.37,-2.78,-1.37,2.08,-6.75,34.56,34.18
152.248026,-12.0,3.45,-2.85,1.14,2.82,-5.63,-6.75,34.56,34.18
152.267977,-11.57,-1.53,-9.55,1.31,3.14,-8.39,1.37,31.25,36.06
152.292013,-9.68,-1.96,-9.86,0.67,0.86,-9.3,1.37,31.25,36.06
152.316056,1.18,-1.19,-6.68,0.15,-0.51,-8.97,1.37,31.25,36.06
152.336063,9.47,-5.79,-8.31,0.39,-0.7,-8.91,-14.56,31.87,34.18
152.360112,17.69,-8.4,-8.01,0.68,-0.79,-6.79,-14.56,31.87,34.18
152.392098,11.78,-8.8,-11.19,-0.4,-0.7,-0.15,-22.75,23.75,35.37
152.416027,3.52,-7.27,-12.81,-0.57,-0.29,5.59,-22.75,23.75,35.37
152.436042,-1.78,-3.31,-9.86,-0.51,-1.75,11.52,-22.75,23.75,35.37
152.460005,-11.73,4.44,-5.0,4.43,3.29,-7.42,-6.37,30.68,38.06
152.491976,-6.55,-0.79,-13.1,4.61,4.11,-13.62,-6.37,30.68,38.06
152.516124,-5.29,-4.38,-11.6,1.24,2.21,-9.25,-0.37,28.06,41.0
152.540107,1.35,-1.07,-6.36,-0.59,-0.52,-5.68,-0.37,28.06,41.0
152.560101,7.53,-2.22,-3.96,-0.75,-1.36,-5.38,-18.75,29.25,35.18
152.584064,9.07,-8.16,-6.87,-0.58,0.85,-4.8,-18.75,29.25,35.18
152.607995,7.63,-12.09,-9.72,-0.53,1.39,-4.21,-18.75,29.25,35.18
152.627927,7.58,-11.8,-12.82,-0.69,1.12,-0.87,-23.25,21.87,39.18
152.651924,3.99,-10.59,-14.77,-2.08,-0.04,6.16,-23.25,21.87,39.18
152.671925,4.51,2.88,-11.9,-4.52,-3.15,13.42,-27.0,17.37,35.87
152.69591,-3.28,10.5,-4.25,-9.95,-9.06,22.28,-27.0,17.37,35.87
152.719858,-5.26,-1.92,0.92,-8.58,-5.42,18.64,-27.0,17.37,35.87
152.739959,-5.11,2.94,-3.32,1.23,1.77,2.34,-13.87,22.5,43.75
152.763967,-10.94,5.92,-11.93,3.86,1.36,-3.74,-13.87,22.5,43.75
152.787928,-12.5,1.89,-13.54,3.57,0.11,-5.31,2.5,12.37,45.68
152.807865,-9.63,10.73,-7.07,2.66,3.22,-18.68,-0.06,18.68,44.68
152.831969,-1.53,9.81,-7.15,2.02,2.56,-17.37,-9.5,18.5,42.06
152.855969,10.7,3.46,-6.65,-0.45,-0.77,-8.77,-9.5,18.5,42.06
152.875954,21.78,-8.69,-8.55,-0.78,-0.93,-5.81,-9.5,18.5,42.06
152.899972,13.2,-13.13,-11.02,-0.13,1.0,1.03,-24.37,9.06,40.5
152.919952,3.84,-10.4,-13.02,1.17,0.76,3.28,-24.37,9.06,40.5
152.943863,6.49,-9.02,-11.54,1.4,0.61,4.26,-24.75,1.87,40.5
152.967856,9.08,-11.01,-10.73,-0.61,0.39,8.5,-24.75,1.87,40.5
152.987857,4.23,-8.36,-10.06,-1.79,-0.25,10.67,-24.75,1.87,40.5
153.011855,4.53,-5.16,-5.27,-2.16,-3.44,12.47,-25.87,8.06,41.68
153.055779,8.32,0.95,-2.82,-1.79,-3.91,11.63,-25.87,8.06,41.68
153.079855,-3.31,14.37,-0.55,-2.14,-3.73,11.78,-17.87,17.25,42.5
153.099864,-10.96,14.29,-2.13,-4.14,-3.1,11.27,-17.87,17.25,42.5
153.123864,-13.03,7.73,-9.84,-4.55,-2.74,10.54,-17.87,17.25,42.5
153.147864,-14.28,3.71,-7.12,-0.12,0.88,-1.08,-3.68,18.75,45.18
153.168084,2.15,8.51,-5.39,3.0,0.79,-17.9,-7.87,17.75,42.56
153.192064,9.26,5.15,-3.43,1.58,0.65,-16.39,-7.87,17.75,42.56
153.21194,15.29,-3.49,-5.08,0.63,-0.8,-12.73,-7.87,17.75,42.56
153.236018,18.11,-8.19,-8.73,-0.4,-0.53,-9.33,-20.87,11.75,41.0
153.259979,14.84,-9.27,-10.94,0.08,-0.18,2.51,-20.87,11.75,41.0
153.27997,8.32,-4.71,-8.96,0.61,-0.07,4.68,-22.75,1.56,42.87
153.303978,11.11,-4.29,-7.63,0.97,0.93,7.8,-22.75,1.56,42.87
153.327979,8.09,-3.16,-4.8,-1.05,0.13,12.67,-22.75,1.56,42.87
153.347981,4.65,-1.18,-2.86,-2.23,-0.67,14.28,-21.87,7.68,43.5
153.371985,-0.87,5.73,-5.44,-3.02,-2.17,13.89,-21.87,7.68,43.5
153.391982,-12.43,5.39,-10.31,-2.32,-1.69,12.23,-15.87,15.75,44.37
153.415971,-19.84,3.88,-9.11,0.13,0.5,1.11,-15.87,15.75,44.37
153.440015,-15.94,6.45,-5.09,3.72,3.59,-12.3,-15.87,15.75,44.37
153.459972,-6.72,3.31,-6.38,3.96,4.65,-16.38,-6.56,17.25,43.56
153.483973,-2.19,-0.11,-7.8,-0.41,1.27,-10.25,-6.56,17.25,43.56
153.515977,7.94,-2.5,-6.74,-1.1,-0.35,-6.8,-21.56,14.18,40.25
153.540015,9.64,-7.28,-6.06,-1.89,-0.92,0.02,-21.56,14.18,40.25
153.564023,3.69,-5.79,-7.55,-1.93,-0.71,1.93,-21.56,14.18,40.25
153.58398,-0.06,-4.97,-8.65,-1.52,-0.94,3.06,-22.68,5.56,41.56
153.608012,-0.76,-1.45,-9.03,-1.73,-1.63,4.5,-22.68,5.56,41.56
153.628022,-3.3,0.52,-7.23,-1.84,-0.34,2.25,-18.56,6.0,44.68
153.65197,-3.78,-2.25,-8.75,-0.9,0.16,0.11,-18.56,6.0,44.68
153.676011,-3.36,-2.18,-9.33,-0.56,-0.04,-0.23,-17.75,5.56,44.68
153.695896,-3.31,-1.8,-9.27,-0.81,-0.43,0.76,-17.75,5.56,44.68
153.72006,-3.44,-1.12,-8.94,-0.99,-0.63,1.35,-17.75,5.56,44.68
153.744109,-3.63,-0.72,-8.91,-1.01,-0.5,1.04,-17.06,3.56,44.18
153.764057,-3.12,-1.13,-9.02,-0.69,0.05,0.51,-17.06,3.56,44.18
153.788118,-4.05,-2.41,-9.57,-0.56,0.14,0.3,-18.18,3.56,45.75
153.808107,-3.66,-2.57,-10.0,-0.41,0.02,-0.18,-18.18,3.56,45.75
153.832083,-3.07,-1.72,-9.76,-0.3,-0.07,-0.55,-18.18,3.56,45.75
153.85601,-2.8,-1.34,-9.52,-0.41,-0.21,-0.18,-17.68,2.75,45.25
153.876096,-2.91,-1.56,-9.72,-0.61,-0.36,0.41,-17.68,2.75,45.25
153.900082,-2.58,-1.54,-9.9,-0.72,-0.51,0.93,-19.56,2.75,44.68
153.924107,-2.89,-1.45,-9.96,-0.84,-0.49,1.39,-19.56,2.75,44.68
153.944102,-3.03,-1.47,-10.0,-1.04,-0.63,1.56,-19.56,2.75,44.68
153.968066,-4.08,-1.35,-9.98,-1.17,-0.72,1.39,-18.06,2.25,45.5
153.988078,-3.89,-1.28,-10.33,-0.88,-0.75,1.12,-18.06,2.25,45.5
154.0121,-4.11,-0.94,-10.43,-0.71,-0.67,0.93,-18.06,2.68,47.25
154.036068,-4.29,-0.95,-10.19,-0.58,-0.57,0.78,-18.06,2.68,47.25
154.056091,-3.94,-1.12,-10.24,-0.48,-0.47,0.64,-18.06,2.68,47.25
154.079888,-4.04,-1.19,-10.4,-0.31,-0.32,0.56,-16.68,2.25,48.56
154.103814,-4.07,-1.3,-10.49,-0.23,-0.26,0.48,-16.68,2.25,48.56
154.123846,-4.0,-1.08,-10.43,-0.19,-0.3,0.55,-17.06,3.0,47.56
154.147863,-4.57,-0.94,-10.35,-0.19,-0.39,0.77,-17.06,3.0,47.56
154.167829,-4.51,-0.25,-9.8,-0.26,-0.69,0.44,-15.87,3.25,47.68
154.191799,-4.51,-0.08,-9.69,-0.25,-0.56,0.5,-15.87,3.25,47.68
154.215786,-4.55,0.66,-9.0,-0.2,-0.51,0.6,-15.87,3.25,47.68
154.235897,-4.32,0.88,-8.38,-0.13,-0.5,0.67,-14.5,2.87,47.06
154.259902,-4.3,1.11,-7.74,0.02,-0.46,0.56,-14.5,2.87,47.06
154.28397,-4.46,1.08,-8.01,0.33,-0.33,0.17,-15.56,2.5,47.0
154.303953,-4.86,0.45,-8.6,0.4,-0.26,-0.13,-15.56,2.5,47.0
154.328063,-4.38,0.55,-8.47,0.66,-0.12,-0.86,-15.56,2.5,47.0
154.347896,-3.58,1.62,-7.42,0.93,-0.01,-1.38,-14.5,0.87,45.25
154.372006,-4.01,2.98,-7.16,0.91,0.06,-1.16,-14.5,0.87,45.25
154.395997,-4.88,2.72,-7.05,0.53,0.01,-0.14,-15.56,0.5,45.0
154.415972,-5.53,1.8,-7.65,0.07,-0.23,0.71,-15.56,0.5,45.0
154.439995,-5.81,1.07,-8.48,-0.07,-0.32,0.81,-15.56,0.5,45.0
154.463888,-6.02,1.14,-8.74,0.02,-0.35,0.5,-16.25,0.87,42.87
154.483852,-5.87,1.49,-8.22,0.22,-0.26,0.22,-16.25,0.87,42.87
154.507901,-5.24,1.78,-7.69,0.37,0.06,-0.29,-16.18,-0.18,45.18
154.539935,-5.04,1.77,-7.73,0.36,0.45,-0.72,-16.18,-0.18,45.18
154.563901,-5.31,1.89,-8.58,0.27,0.29,-0.5,-16.18,-0.18,45.18
154.583968,-4.87,1.71,-8.65,0.11,0.1,-0.06,-17.0,-1.0,43.56
154.607899,-4.99,1.48,-8.56,-0.16,-0.18,0.57,-17.0,-1.0,43.56
154.631871,-5.48,1.64,-8.52,-0.34,-0.52,0.89,-17.18,-2.87,44.0
154.651855,-6.42,1.63,-8.77,0.02,-0.38,0.32,-16.5,-2.87,43.5
154.675902,-5.85,1.31,-8.59,0.0,-0.77,0.46,-16.5,-4.37,44.68
154.69986,-5.22,1.08,-8.0,0.14,-0.79,0.4,-16.5,-4.37,44.68
154.719897,-5.43,1.11,-7.66,0.38,-0.61,0.0,-16.5,-4.37,44.68
154.743949,-5.64,1.71,-7.1,0.31,-0.69,-0.16,-14.25,-4.37,44.68
154.763808,-5.37,2.24,-6.49,0.18,-0.83,-0.01,-14.25,-4.37,44.68
154.787907,-5.08,2.0,-6.89,0.22,-0.74,0.2,-12.0,-5.06,46.06
154.811903,-4.25,1.11,-7.04,0.14,-0.53,0.84,-12.0,-5.06,46.06
154.83185,-5.05,1.11,-6.61,0.28,0.13,0.81,-12.0,-5.06,46.06
154.855912,-6.53,1.91,-6.82,0.39,0.69,0.28,-10.5,-5.5,44.87
154.879857,-6.72,2.29,-6.43,0.17,0.64,0.41,-10.5,-5.5,44.87
154.899966,-5.77,2.27,-5.96,-0.1,0.7,0.71,-11.18,-4.25,45.75
154.923955,-5.63,2.13,-6.37,-0.33,0.88,0.92,-11.18,-4.25,45.75
154.943963,-6.7,1.9,-7.53,-0.34,0.95,1.28,-11.18,-4.25,45.75
154.967956,-6.7,1.91,-7.62,-0.01,0.77,1.23,-13.06,-3.87,44.75
154.992002,-5.18,2.06,-7.61,0.35,0.83,1.23,-13.06,-3.87,44.75
155.012013,-5.63,2.18,-7.79,0.41,0.98,1.35,-14.87,-4.25,44.5
155.035994,-6.35,2.9,-7.59,0.12,0.72,0.96,-14.87,-4.25,44.5
155.059997,-5.8,2.94,-7.89,0.19,0.7,0.42,-14.87,-4.25,44.5
155.080005,-5.84,2.49,-8.52,0.02,0.67,0.3,-17.75,-2.37,44.5
155.104008,-5.36,2.35,-9.01,0.0,0.64,0.03,-17.75,-2.37,44.5
155.123999,-4.96,2.41,-8.86,0.1,0.65,-0.04,-19.25,-2.0,44.5
155.147746,-3.63,2.67,-9.39,0.22,0.38,0.34,-20.75,-2.0,43.25
155.171405,-3.67,2.36,-9.3,0.39,0.71,0.73,-21.87,-1.25,44.5
155.191719,-2.92,2.44,-10.02,0.49,1.0,0.79,-21.87,-1.25,44.5
155.215756,-4.12,3.12,-13.15,0.43,1.51,1.48,-21.87,-1.25,44.5
155.23972,-2.41,1.83,-10.5,0.14,3.53,3.03,-23.25,0.18,43.68
155.259843,0.17,2.22,-9.77,-0.21,1.72,4.12,-23.25,0.18,43.68
155.283841,-0.07,0.57,-9.68,0.09,1.77,3.94,-27.75,2.5,40.5
155.303838,0.64,0.55,-9.97,0.87,2.03,2.87,-27.75,2.5,40.5
155.327698,1.39,1.35,-11.12,1.64,1.95,2.24,-27.75,2.5,40.5
155.351665,-1.35,0.7,-9.99,2.32,0.38,2.38,-31.5,8.68,37.25
155.371687,1.93,2.18,-10.11,1.8,0.56,1.97,-31.5,8.68,37.25
155.395813,-0.43,-0.67,-10.33,0.91,0.21,1.98,-33.37,14.25,34.87
155.419813,-0.42,0.54,-10.23,0.38,0.15,0.49,-33.37,14.25,34.87
155.439823,-1.21,3.9,-11.7,-0.02,-0.1,-0.57,-33.37,14.25,34.87
155.46379,0.28,1.26,-11.04,-0.98,-1.47,-0.82,-32.18,20.25,33.75
155.483769,-2.83,1.23,-13.5,-1.36,-2.88,-0.53,-32.18,20.25,33.75
155.507772,1.37,3.98,-17.44,-1.26,-2.78,0.0,-31.0,19.18,36.18
155.531759,-3.43,1.42,-14.57,-2.16,-2.03,1.88,-31.0,19.18,36.18
155.551922,-5.74,-0.54,-17.8,-2.44,-2.85,1.99,-31.0,19.18,36.18
155.575962,0.85,-3.12,-15.77,-1.77,-3.93,1.2,-26.56,16.06,41.5
155.599934,-6.25,-1.2,-15.99,-0.28,-3.81,0.97,-26.56,16.06,41.5
155.619888,-5.6,3.46,-10.64,1.81,-5.01,-1.72,-17.87,13.5,44.87
155.643969,-3.6,5.68,-6.07,0.15,-6.11,-2.67,-17.87,13.5,44.87
155.663837,0.09,7.21,-8.18,-1.94,-5.89,-2.31,-17.87,13.5,44.87
155.687865,-5.61,0.57,-4.22,0.62,-2.43,-2.49,6.0,11.56,48.18
155.711704,-3.22,-0.17,-3.83,0.18,-2.35,-2.78,6.0,11.56,48.18
155.731848,-7.51,0.91,-4.15,-0.76,-2.49,-0.65,11.5,10.87,46.87
155.755849,-7.41,0.08,-5.61,-1.01,-2.66,0.35,11.5,10.87,46.87
155.780539,-9.36,0.92,-5.68,-0.36,-2.41,0.92,18.18,12.68,43.68
155.799831,-11.67,-4.32,-9.57,0.36,0.0,0.6,18.18,12.68,43.68
155.824503,-10.26,-1.68,-7.3,3.53,-0.3,-1.33,18.18,12.68,43.68
155.843881,-10.43,0.75,-4.5,4.65,-0.46,-2.25,22.37,10.5,42.18
155.867837,-13.91,4.13,-2.18,3.8,-0.09,-2.36,22.37,10.5,42.18
155.891884,-13.53,7.14,-2.87,1.81,0.28,-0.08,24.0,16.75,38.56
155.911879,-12.05,3.33,-3.63,0.78,-1.5,0.42,24.0,16.75,38.56
155.93588,-8.88,-0.1,-2.73,1.01,-1.16,-0.43,24.0,16.75,38.56
155.959879,-5.97,-1.51,-2.6,1.14,-0.42,-1.22,23.56,20.75,35.68
155.979977,-5.77,-1.32,-2.75,0.75,0.03,-0.72,23.56,20.75,35.68
156.003966,-6.84,-1.48,-3.14,0.56,-0.06,-0.14,27.56,23.87,34.25
156.024638,-6.74,-0.07,-2.23,0.04,-0.31,0.31,27.56,23.87,34.25
156.047942,-6.01,-0.01,-2.45,-0.29,-0.37,1.01,27.56,23.87,34.25
156.071885,-7.28,1.13,-5.79,-0.36,-0.27,1.81,27.56,25.37,33.25
156.091946,-6.97,-1.81,-2.0,-0.03,1.18,2.21,27.56,25.37,33.25
156.115796,-3.57,-3.32,-9.73,-0.41,2.42,0.78,29.5,23.87,33.37
156.139938,2.36,-2.06,-15.0,3.3,5.76,0.35,29.5,23.87,33.37
156.159812,-14.79,-1.53,2.85,1.55,2.64,0.58,29.5,23.87,33.37
156.183939,-8.09,1.12,-4.45,-1.09,-0.33,0.35,26.5,22.75,36.18
156.203935,-7.67,0.71,-5.05,-1.66,-0.13,0.94,26.5,22.75,36.18
156.227843,-8.72,0.99,-11.81,0.66,1.19,0.98,23.18,20.56,39.0
156.251915,-11.46,3.53,-5.03,0.51,1.3,1.69,23.18,20.56,39.0
156.271916,-11.34,3.57,-6.45,-0.91,2.98,0.04,22.37,20.18,40.18
156.295943,-9.74,2.99,-8.63,-1.99,4.72,-0.78,22.37,20.18,40.18
156.319882,-8.39,1.82,-10.13,-1.03,4.68,-1.32,22.37,20.18,40.18
156.339927,-6.17,2.79,-8.76,1.54,4.1,-1.56,17.06,19.06,42.56
156.363938,-4.67,2.73,-7.65,0.37,4.45,-2.11,17.06,19.06,42.56
156.383841,-6.71,0.99,-9.82,-0.35,3.56,-2.66,7.75,18.68,44.18
156.407844,-3.88,-0.72,-7.12,-0.4,0.04,-2.22,7.75,18.68,44.18
156.431842,-2.19,0.59,-7.81,0.58,2.98,-1.48,7.75,18.68,44.18
156.451832,-10.21,3.99,-3.39,0.6,7.66,-1.94,-3.0,19.06,44.18
156.475832,-5.91,0.47,-1.46,-1.82,1.84,-1.82,-3.0,19.06,44.18
156.495836,-3.26,-0.63,-12.48,-2.07,-7.04,-0.49,-11.0,19.37,41.75
156.519862,-1.39,0.34,-10.44,-0.97,-3.25,0.42,-11.0,19.37,41.75
156.54383,-3.86,0.8,-9.94,-0.6,-1.6,0.46,-11.0,19.37,41.75
156.564456,-4.84,-1.0,-8.3,-0.02,-1.02,-0.32,-7.25,16.06,43.68
156.587843,-1.04,-2.77,-7.17,0.35,-0.75,1.21,-7.25,16.06,43.68
156.611859,-0.71,-3.48,-9.71,0.14,-0.45,3.01,-3.18,13.5,45.18
156.631843,-3.53,-4.25,-14.05,0.98,-1.31,2.83,-3.18,13.5,45.18
156.655838,-2.09,-6.0,-15.93,2.9,-1.67,3.88,-3.18,13.5,45.18
156.675839,-1.06,-5.98,-12.63,3.39,-2.08,4.94,-0.68,14.06,44.75
156.699843,-2.13,-5.28,-12.01,3.28,-1.85,5.34,-0.68,14.06,44.75
156.723853,-0.25,-9.33,-12.28,4.46,-0.7,5.13,6.75,19.25,42.0
156.743827,-2.54,-1.6,-2.5,5.06,-0.5,4.65,6.75,19.25,42.0
156.767764,-4.87,12.53,-0.98,4.61,-0.34,3.74,19.5,25.75,32.75
156.791942,-5.19,4.3,-7.08,0.76,1.03,3.44,19.5,25.75,32.75
156.812637,-0.19,1.7,-9.36,-0.21,0.81,2.68,19.5,25.75,32.75
156.835932,-2.5,5.61,-6.61,-0.45,0.94,2.8,24.0,26.56,28.87
156.855937,-3.2,8.43,-10.49,-1.41,1.26,2.52,24.0,26.56,28.87
156.879931,-5.87,8.27,-10.27,0.11,0.68,3.3,26.25,22.25,30.0
156.90467,-0.48,4.01,-11.66,-0.23,0.93,1.69,26.25,22.25,30.0
156.923972,-2.65,5.67,-10.63,1.01,0.61,2.36,26.25,22.25,30.0
156.947932,-2.58,7.84,-9.33,0.96,0.88,1.67,26.06,18.25,31.06
156.971966,-1.77,9.64,-8.75,0.53,0.74,0.86,26.06,18.25,31.06
156.991818,-0.56,10.76,-9.3,0.38,0.26,0.53,25.37,16.25,30.56
157.015779,-1.08,11.36,-9.09,0.64,0.16,-0.07,25.37,16.25,30.56
157.035823,0.07,13.22,-7.4,0.93,0.01,-1.14,25.37,16.25,30.56
157.059788,1.78,13.01,-8.27,0.73,-0.11,-2.02,25.75,15.75,32.56
157.083786,1.85,12.61,-7.24,0.98,-0.33,-2.73,25.75,15.75,32.56
157.104508,2.49,11.03,-5.93,0.51,-0.49,-3.19,25.75,18.0,31.37
157.127822,-0.55,8.11,-5.34,-0.31,-0.87,-3.86,25.75,18.0,31.37
157.151772,-0.12,8.14,-8.52,-1.5,1.61,-4.19,25.75,18.0,31.37
157.171807,-2.12,7.34,-12.04,-1.83,1.82,-4.77,22.75,22.75,31.06
157.19579,-6.5,5.39,-19.02,-0.66,1.07,-5.73,22.75,22.75,31.06
157.216045,-8.02,1.79,-20.14,-1.05,0.19,-6.18,17.18,26.5,31.37
157.239962,-2.49,-3.55,-23.4,-4.26,-1.1,-6.27,17.18,26.5,31.37
157.263973,-9.36,-5.28,-26.03,-2.82,-0.56,-4.28,17.18,26.5,31.37
157.295981,-7.11,-6.35,-21.35,-1.17,-1.4,-3.92,9.37,31.0,35.75
157.319913,-3.41,-5.91,-12.68,0.31,-2.65,-2.0,6.87,26.87,39.75
157.340018,-2.88,-4.97,-11.59,0.06,-2.92,-1.65,7.18,26.37,40.06
157.363972,-2.63,-2.69,-10.84,0.02,-3.14,-1.53,7.18,26.37,40.06
157.388109,-2.04,-0.78,-9.8,-0.32,-3.07,-1.7,12.18,26.68,40.06
157.420022,-1.55,0.75,-11.45,-0.25,-3.29,-2.05,12.18,26.68,40.06
157.444017,-0.17,-1.15,-11.73,-0.4,-3.22,-2.22,12.18,26.68,40.06
157.463995,-0.17,-1.39,-12.28,0.06,-3.01,-2.21,16.18,27.06,38.18
157.488014,1.38,-4.76,-9.43,1.25,-3.19,-1.77,16.18,27.06,38.18
157.512021,1.46,-1.23,-1.49,1.75,-3.22,-1.15,20.25,27.68,36.25
157.531839,1.41,0.18,3.74,1.28,-2.88,-0.88,20.25,27.68,36.25
157.556025,1.87,-1.23,10.5,0.21,-2.26,-0.62,20.25,27.68,36.25
157.576097,1.73,-1.99,11.34,-1.31,-1.45,-0.19,23.18,31.0,31.37
157.599973,0.95,-3.86,8.58,-1.57,-0.57,0.05,23.18,31.0,31.37
157.624017,0.99,-4.51,8.19,-0.98,0.08,0.43,26.37,32.06,30.37
157.644012,0.68,-1.76,7.05,-0.53,0.71,0.66,26.37,32.06,30.37
157.667972,0.72,0.32,0.06,0.06,2.75,0.54,26.0,29.0,33.06
157.692003,0.36,0.74,-5.18,-0.91,2.94,0.19,26.0,29.0,33.06
157.711946,-0.22,1.09,-6.18,-1.0,2.24,0.49,26.0,29.0,33.06
157.747893,-8.49,15.54,-23.45,-0.03,1.49,0.02,21.87,28.25,36.18
157.768008,-3.73,0.79,-10.1,-0.25,0.69,0.51,21.87,28.25,36.18
157.791958,-4.26,0.27,-14.65,-1.4,3.14,-0.96,17.75,27.37,39.37
157.812019,-3.89,-1.51,-14.55,-0.53,2.73,-0.56,17.75,27.37,39.37
157.83602,-2.64,-1.47,-9.34,-1.06,3.04,-0.55,17.75,27.37,39.37
157.860024,-3.29,-1.36,-10.24,-2.19,3.08,-0.03,11.06,27.06,41.75
157.879976,-3.18,-1.9,-11.21,-3.4,2.73,0.33,11.06,27.06,41.75
157.903977,-4.18,-2.58,-13.33,-3.27,2.62,0.49,5.37,25.56,44.18
157.928019,-4.53,-2.77,-12.96,-2.79,2.45,0.77,5.37,25.56,44.18
157.948082,-5.01,-2.73,-13.36,-1.4,2.22,1.04,5.37,25.56,44.18
157.972078,-4.67,-2.1,-12.61,-0.54,1.84,0.93,-2.0,19.87,46.87
157.9921,-4.09,-1.79,-12.54,-0.66,1.58,1.2,-2.0,19.87,46.87
158.015902,-5.07,-1.24,-12.93,-0.4,1.29,1.37,-6.06,18.37,46.87
158.039946,-6.43,-2.46,-13.51,0.05,1.26,0.76,-6.06,18.37,46.87
158.059955,-5.14,-2.57,-13.52,0.5,0.98,0.25,-6.06,18.37,46.87
158.083851,-4.29,-1.15,-12.61,0.12,0.75,0.44,-10.25,18.06,46.06
158.10793,-6.47,-0.88,-16.21,-1.16,1.28,1.31,-10.25,18.06,46.06
158.127947,-8.33,4.2,-15.23,-0.39,0.77,-0.81,-14.75,20.18,44.18
158.151961,-6.65,5.09,-15.16,0.46,0.14,-1.43,-14.75,20.18,44.18
158.171983,-4.19,3.37,-10.53,0.69,-0.31,-1.34,-16.37,17.87,43.75
158.195914,-1.77,2.87,-7.97,0.04,0.67,-0.87,-16.37,17.87,43.75
158.219855,-2.92,1.81,-9.28,-0.12,1.06,-0.7,-16.37,17.87,43.75
158.239929,-2.04,1.82,-9.55,0.99,0.31,-0.79,-18.56,18.18,43.06
158.263883,-2.47,0.83,-11.02,0.85,0.3,-0.64,-18.56,18.18,43.06
158.287881,-2.21,1.47,-10.11,1.05,0.17,-0.67,-19.75,17.37,42.37
158.307874,-2.4,1.56,-10.28,1.44,-0.16,-0.78,-19.75,17.37,42.37
158.331864,-3.14,0.66,-9.88,1.58,-0.26,-0.96,-19.75,17.37,42.37
158.351906,-1.94,0.86,-8.18,1.49,0.25,-1.64,-23.06,18.5,40.5
158.375901,-1.56,1.97,-8.3,1.07,0.34,-1.79,-23.06,18.5,40.5
158.399961,-2.1,-0.4,-8.6,0.28,0.55,-1.86,-23.87,18.5,38.87
158.431859,-1.18,0.83,-8.4,0.93,0.36,-1.32,-23.87,18.5,38.87
158.455899,-0.92,0.09,-8.4,0.52,0.54,-1.09,-23.87,18.5,38.87
158.475873,-1.21,0.49,-8.64,-0.3,0.29,-0.81,-26.5,18.56,37.75
158.499964,-0.76,0.07,-8.94,-0.51,0.02,-0.49,-26.5,18.56,37.75
158.524007,-1.81,0.05,-9.96,-0.68,-0.03,-0.21,-28.37,16.75,37.5
158.544003,-0.82,-1.03,-9.24,0.07,0.08,-0.37,-28.37,16.75,37.5
158.568004,-2.78,1.59,-9.41,-0.27,-0.53,-0.18,-29.5,14.25,37.06
158.588003,-2.99,1.46,-9.52,-0.8,-1.29,-0.48,-29.5,14.25,37.06
158.611916,-2.62,1.63,-9.02,-1.08,-1.54,-0.6,-29.5,14.25,37.06
158.636001,-1.92,1.03,-8.94,-0.99,-1.15,-0.9,-29.5,13.06,38.68
158.656007,-2.37,0.62,-9.44,-0.22,-0.18,-1.28,-29.5,13.06,38.68
158.679974,-2.37,-0.46,-10.0,-0.03,-0.03,-1.34,-27.56,9.5,41.06
158.704006,-2.29,-0.82,-10.63,-0.74,-0.59,-0.06,-27.56,9.5,41.06
158.723682,-1.78,0.49,-10.3,-0.81,-0.61,0.47,-27.56,9.5,41.06
158.747846,-1.01,0.1,-9.61,-0.84,-0.19,0.69,-27.37,8.37,41.56
158.76791,-2.65,-1.11,-11.69,-0.56,0.14,0.61,-27.37,8.37,41.56
158.792006,-1.85,-0.81,-10.36,0.22,0.06,0.41,-25.87,7.18,41.56
158.815999,-3.28,-0.36,-10.75,1.03,-0.18,1.02,-25.87,7.18,41.56
158.836101,-2.59,0.52,-7.6,0.94,-0.57,1.4,-26.87,8.68,42.37
158.860096,-3.03,0.47,-7.76,0.28,-0.48,0.8,-26.87,8.68,42.37
158.884084,-4.88,0.62,-10.68,-0.15,-0.7,0.82,-26.87,8.68,42.37
158.904105,-4.98,0.08,-11.48,0.2,-0.65,0.54,-26.06,10.18,41.06
158.92808,-5.69,-0.18,-13.45,0.78,-0.76,0.49,-26.06,10.18,41.06
158.948052,-5.15,0.01,-10.92,0.77,-1.4,0.82,-24.25,11.37,42.68
158.972062,-4.73,0.04,-9.52,0.68,-0.84,0.5,-24.25,11.37,42.68
158.995975,-5.01,0.06,-9.68,0.5,-1.03,0.45,-24.25,11.37,42.68
159.015974,-4.95,0.15,-10.52,0.05,-1.08,0.84,-21.56,12.87,41.87
159.039859,-5.79,0.27,-10.25,0.93,-1.45,1.16,-21.56,12.87,41.87
159.063824,-5.03,0.13,-8.86,1.09,-1.54,1.08,-18.56,13.18,43.87
159.087942,-3.71,0.19,-8.28,0.58,-1.75,1.02,-18.56,13.18,43.87
159.10786,-5.07,0.27,-7.4,-1.61,0.61,1.17,-10.5,14.68,44.25
159.127877,-4.04,2.4,-7.06,-2.02,0.49,1.04,-10.5,14.68,44.25
159.151855,-8.08,1.2,-5.81,-1.74,0.77,0.24,-10.5,14.68,44.25
159.175903,-3.3,4.03,-6.92,-1.69,-1.04,-0.8,-8.5,12.5,42.25
159.195969,-4.55,4.41,-8.36,-2.28,-1.1,0.41,-8.5,12.5,42.25
159.219942,-6.19,5.0,-8.13,-0.88,-2.07,1.37,-7.0,9.18,43.5
159.243902,-8.65,4.57,-8.56,-0.39,-1.32,1.62,-7.0,9.18,43.5
159.263854,-4.05,-0.81,-8.47,0.67,-1.44,0.49,-7.0,9.18,43.5
159.287902,-3.18,-0.66,-8.77,1.27,-0.6,-1.46,-3.56,7.0,44.25
159.307903,-3.62,0.25,-6.09,1.07,-0.01,-1.92,-3.56,7.0,44.25
159.331855,-3.38,1.89,-7.2,-0.36,-0.27,-0.95,-0.18,9.18,45.25
159.3559,-4.05,2.12,-7.16,-0.98,-0.61,0.5,-0.18,9.18,45.25
159.375901,-6.24,6.89,-12.82,-1.44,-0.93,1.64,-0.18,9.18,45.25
159.399854,-5.14,1.47,-6.22,-0.52,-0.24,2.5,0.56,9.18,44.06
159.423895,-5.31,0.86,-7.91,0.25,-0.59,2.05,0.56,9.18,44.06
159.443902,-7.75,2.9,-6.07,0.54,-0.95,1.41,1.25,7.25,43.37
159.467869,-5.58,4.49,-6.53,0.56,-3.41,0.87,1.25,7.25,43.37
159.487904,-7.76,3.68,-8.3,0.87,-3.57,0.96,1.25,7.25,43.37
159.511873,-8.02,1.58,-10.03,2.37,-2.29,-0.75,5.06,8.06,43.75
159.535875,-4.38,1.76,-6.35,4.08,-3.2,-1.54,5.06,8.06,43.75
159.555877,-3.3,2.92,-4.18,4.47,-5.74,0.66,11.06,11.06,41.06
159.579869,-6.25,3.91,-0.56,4.44,-6.63,3.05,11.06,11.06,41.06
159.599935,-6.45,4.34,2.2,2.64,-4.08,4.41,11.06,11.06,41.06
159.623964,-11.32,4.49,-3.97,-0.27,0.17,4.29,19.0,17.06,32.25
159.648021,-5.55,6.88,-4.69,-0.69,0.68,5.18,24.68,14.87,30.37
159.667964,-4.23,7.12,-4.0,-0.45,0.07,7.23,25.87,13.0,29.75
159.691956,-4.37,10.02,-3.41,-0.44,-1.14,9.75,25.87,13.0,29.75
159.715967,-6.0,11.27,-2.91,-1.03,-0.52,11.02,27.68,7.25,33.06
159.735948,-4.11,10.58,-2.44,-0.41,0.81,8.11,27.68,7.25,33.06
159.759854,-4.11,10.24,-3.38,-0.16,1.36,5.08,27.68,7.25,33.06
159.783858,-1.86,10.77,-2.91,-0.2,0.3,2.7,27.25,-7.37,33.0
159.803967,-1.64,10.54,-3.46,-0.48,0.3,2.17,27.25,-7.37,33.0
159.827854,-1.44,10.1,-3.42,-0.59,0.1,1.96,23.87,-13.56,35.25
159.847787,-1.76,10.17,-2.93,-0.16,0.13,0.9,23.87,-13.56,35.25
159.87187,-0.79,10.11,-2.88,0.31,0.07,-0.38,23.87,-13.56,35.25
159.895857,-0.5,9.97,-3.05,0.26,-0.05,-0.48,21.5,-16.68,34.68
159.915693,-0.66,9.67,-2.76,0.27,0.05,-0.48,21.5,-16.68,34.68
159.939863,-0.04,9.36,-3.03,0.16,0.26,-0.52,22.18,-15.56,36.18
159.959856,-0.59,9.02,-3.53,-0.1,0.45,-0.03,22.18,-15.56,36.18
159.983858,-0.54,9.02,-3.26,0.0,0.34,0.07,22.18,-15.56,36.18
160.007956,-0.45,8.98,-3.15,0.06,0.33,0.03,21.25,-15.68,35.68
160.027965,-0.55,9.11,-3.32,0.2,0.36,-0.25,21.25,-15.68,35.68
160.051976,0.12,9.67,-3.15,0.41,0.26,-0.67,20.5,-15.37,35.68
160.075946,0.5,10.37,-2.82,0.56,0.32,-1.0,20.5,-15.37,35.68
160.095975,1.61,12.45,-1.62,0.48,1.01,-1.59,20.5,-15.37,35.68
160.119968,1.34,15.12,0.15,0.36,2.13,-3.08,20.75,-14.18,36.5
160.139964,-1.25,14.43,-2.4,1.12,2.74,-6.11,20.75,-14.18,36.5
160.163717,-8.36,10.99,-9.36,1.4,2.55,-8.66,20.5,-12.06,37.68
160.187677,0.08,2.46,-0.05,1.03,-1.86,-8.64,20.75,-3.18,39.25
160.207568,-3.67,-1.35,-1.27,-0.88,-0.67,-5.4,22.56,12.18,37.18
160.23176,-4.13,-0.02,-4.71,-1.11,-2.43,-3.06,22.56,12.18,37.18
160.255828,-3.68,2.43,-5.27,-0.27,-1.55,-0.93,22.56,12.18,37.18
160.275815,-5.89,0.87,-0.47,-0.04,-0.24,0.95,21.0,17.56,32.87
160.299912,-7.1,2.31,-1.69,-0.88,-0.01,1.6,21.0,17.56,32.87
160.319911,-7.09,2.95,-3.74,-1.41,0.42,1.94,23.5,18.18,33.68
160.343908,-6.99,2.31,-4.21,-1.14,0.94,1.85,23.5,18.18,33.68
160.367908,-5.32,2.09,-3.33,-0.61,1.65,0.96,23.5,18.18,33.68
160.387918,-3.79,7.35,0.05,-0.23,2.65,1.4,23.37,13.5,35.68
160.411921,-3.19,4.54,-0.59,-1.5,4.19,3.23,23.37,13.5,35.68
160.43596,-6.81,4.72,-4.84,-2.17,3.56,2.65,21.5,12.37,40.06
160.455949,-9.03,2.13,-9.0,-1.9,2.68,1.14,21.5,12.37,40.06
160.479921,-10.93,1.48,-7.39,-0.63,2.04,-2.05,21.5,12.37,40.06
160.499936,-9.93,3.87,-7.32,-0.25,1.43,-5.21,14.25,8.18,45.5
160.524017,1.18,4.2,-4.86,-0.82,2.4,-6.02,14.25,8.18,45.5
160.547952,-7.56,3.24,-5.98,-1.34,0.94,-2.86,9.5,8.18,47.87
160.567955,-3.69,1.12,-6.36,-1.11,0.18,-1.74,9.5,8.18,47.87
160.591927,-7.77,2.23,-5.47,-0.96,0.12,-0.24,9.5,8.18,47.87
160.615955,-9.13,0.91,-6.68,-1.0,0.07,-0.25,3.87,7.75,50.25
160.63581,-5.27,4.53,-3.23,-0.28,0.91,-2.5,3.87,7.75,50.25
160.659951,-8.88,1.22,-8.13,-0.2,2.82,-2.75,4.0,5.18,51.25
160.679912,-5.11,0.75,-8.57,-0.39,1.08,-0.85,4.0,5.18,51.25
160.70391,-5.33,4.65,-9.01,-0.06,1.26,0.82,4.0,5.18,51.25
160.727851,-5.54,0.52,-9.89,-0.21,4.35,3.86,-5.5,5.18,50.75
160.747807,-5.39,1.79,-9.44,-0.43,2.52,2.04,-5.5,5.18,50.75
160.771863,-2.33,3.67,-8.99,0.0,0.44,0.53,-14.87,7.75,48.06
160.795815,-2.4,2.88,-9.09,2.22,0.32,-0.38,-14.87,7.75,48.06
160.815863,-0.73,2.69,-9.64,2.68,-0.13,-0.16,-19.18,7.75,48.75
160.839863,-2.86,2.5,-6.5,1.54,-0.42,2.07,-19.18,7.75,48.75
160.859824,-3.76,3.34,-8.05,0.51,-0.41,1.66,-19.18,7.75,48.75
160.883848,-2.92,2.16,-9.55,-0.03,-0.75,1.46,-18.5,13.06,46.37
160.907901,-5.53,0.69,-10.11,-0.24,-0.4,1.14,-18.5,13.06,46.37
160.927905,-2.39,3.49,-8.73,1.37,-0.08,-1.0,-16.06,15.68,48.06
160.951859,-3.32,2.73,-9.66,0.97,-0.03,-0.93,-16.06,15.68,48.06
160.97585,-1.86,2.75,-9.19,0.57,-0.09,-0.49,-16.06,15.68,48.06
160.995822,-3.44,2.45,-9.77,0.49,-0.09,0.02,-15.68,17.06,48.06
161.019851,-1.0,2.67,-8.27,1.0,0.33,0.13,-15.68,17.06,48.06
161.039816,-2.97,2.09,-10.02,1.4,0.89,0.63,-16.5,18.18,46.87
161.063814,-3.47,0.36,-16.98,0.69,-0.28,0.49,-16.5,18.18,46.87
161.087854,-3.34,0.76,-8.65,2.47,0.87,0.35,-16.5,18.18,46.87
161.107961,-1.73,1.63,-9.6,1.77,0.82,0.3,-16.87,20.37,46.18
161.131973,-2.93,1.74,-9.43,1.71,2.36,-0.08,-16.87,20.37,46.18
161.155984,-2.83,1.11,-8.73,1.45,2.16,-1.03,-17.18,23.75,42.56
161.175767,-1.15,-0.66,-9.35,0.71,1.91,-0.99,-17.18,23.75,42.56
161.20011,-0.6,-0.91,-8.9,0.63,2.19,-0.97,-17.18,23.75,42.56
161.219902,0.6,-1.12,-9.8,-0.06,1.81,-0.49,-22.5,26.37,38.5
161.243983,2.22,-2.48,-9.3,-0.25,2.03,-0.04,-22.5,26.37,38.5
161.26806,0.09,0.22,-9.56,0.0,-0.04,0.13,-29.75,26.0,34.56
161.287899,0.05,0.25,-9.93,0.0,0.0,0.0,-29.75,26.0,34.56
161.311825,0.03,0.23,-9.66,0.0,0.0,0.0,-28.68,24.87,36.56
161.33192,0.0,0.24,-9.86,0.0,0.0,0.0,-28.68,24.87,36.56
161.355929,0.06,0.21,-9.72,0.0,0.0,0.0,-28.68,24.87,36.56
161.379917,0.07,0.21,-9.82,0.0,0.0,0.0,-29.5,26.37,35.37
161.399871,0.1,0.28,-9.78,0.0,0.0,0.0,-29.5,26.37,35.37
161.423838,0.04,0.32,-9.8,0.0,0.0,0.0,-29.75,24.87,35.75
161.447908,0.0,0.36,-9.74,0.0,0.0,0.0,-29.75,24.87,35.75
161.467949,-0.04,0.23,-9.76,0.0,0.0,0.0,-29.75,24.87,35.75
161.491954,0.04,0.15,-9.74,0.0,0.0,0.0,-29.75,26.0,35.75
161.515954,0.17,0.16,-9.86,0.0,0.0,0.0,-29.75,26.0,35.75
161.535949,0.14,0.23,-9.82,0.0,0.0,0.0,-29.06,25.25,35.37
161.559907,-0.01,0.33,-9.78,0.0,0.0,0.0,-29.06,25.25,35.37
161.579905,-0.09,0.35,-9.69,0.0,0.0,0.0,-29.06,25.25,35.37
161.603944,-0.01,0.24,-9.75,0.0,0.0,0.0,-30.18,25.68,36.56
161.627933,0.09,0.21,-9.76,0.0,0.0,0.0,-30.18,25.68,36.56
161.647948,0.18,0.19,-9.86,0.0,0.0,0.0,-29.5,24.87,36.18
161.671852,0.07,0.26,-9.85,0.0,0.0,0.0,-29.5,24.87,36.18
161.695814,-0.04,0.3,-9.76,0.0,0.0,0.0,-29.5,24.87,36.18
161.715846,-0.09,0.27,-9.69,0.0,0.0,0.0,-29.75,26.0,35.75
161.739909,0.0,0.26,-9.77,0.0,0.0,0.0,-29.75,26.0,35.75
161.759918,0.15,0.22,-9.85,0.0,0.0,0.0,-29.75,25.68,35.75
161.783899,0.17,0.2,-9.91,0.0,0.0,0.0,-29.75,25.68,35.75
161.807892,0.01,0.28,-9.76,0.0,0.0,0.0,-29.75,25.68,36.56
161.827986,0.11,0.23,-9.81,0.0,0.0,0.0,-29.75,25.68,36.56
161.851998,0.14,0.2,-9.86,0.0,0.0,0.0,-29.75,25.68,36.56
161.872001,0.07,0.21,-9.76,0.0,0.0,0.0,-30.18,26.0,35.37
161.895959,-0.05,0.27,-9.77,0.0,0.0,0.0,-30.18,26.0,35.37
161.920001,-0.03,0.28,-9.69,0.0,0.0,0.0,-29.75,25.25,35.75
161.940018,0.05,0.31,-9.85,0.0,0.0,0.0,-29.75,25.25,35.75
161.964004,0.11,0.24,-9.81,0.0,0.0,0.0,-29.75,25.25,35.75
161.987963,0.09,0.2,-9.8,0.0,0.0,0.0,-30.18,26.0,36.18
162.00801,0.04,0.19,-9.77,0.0,0.0,0.0,-30.18,26.0,36.18
162.031959,0.0,0.25,-9.76,0.0,0.0,0.0,-29.5,25.68,35.37
162.051995,0.03,0.27,-9.77,0.0,0.0,0.0,-29.5,25.68,35.37
162.075963,0.09,0.28,-9.82,0.0,0.0,0.0,-29.5,25.68,35.37
162.099994,0.1,0.24,-9.81,0.0,0.0,0.0,-31.0,26.0,35.0
162.119939,0.06,0.2,-9.81,0.0,0.0,0.0,-31.0,26.0,35.0
162.143884,0.03,0.21,-9.75,0.0,0.0,0.0,-29.75,25.68,35.75
162.167851,0.02,0.24,-9.77,0.0,0.0,0.0,-29.75,25.68,35.75
162.187942,0.03,0.3,-9.81,0.0,0.0,0.0,-29.75,25.68,35.75
162.211911,0.07,0.31,-9.8,0.0,0.0,0.0,-30.18,24.18,35.75
162.231781,0.07,0.23,-9.77,0.0,0.0,0.0,-30.18,24.18,35.75
162.255898,0.0,0.21,-9.73,0.0,0.0,0.0,-29.5,26.0,35.37
162.279859,-0.01,0.22,-9.75,0.0,0.0,0.0,-29.5,26.0,35.37
162.299912,0.01,0.27,-9.77,0.0,0.0,0.0,-29.5,26.0,35.37
162.323882,0.07,0.33,-9.81,0.0,0.0,0.0,-29.75,26.0,35.75
162.347912,0.0,0.22,-9.76,0.0,0.0,0.0,-30.18,24.5,35.75
162.367963,0.03,0.27,-9.75,0.0,0.0,0.0,-29.75,25.68,35.37
162.391969,0.06,0.31,-9.78,0.0,0.0,0.0,-29.75,25.68,35.37
162.411955,0.06,0.27,-9.77,0.0,0.0,0.0,-29.75,25.25,34.68
162.436004,0.01,0.21,-9.74,0.0,0.0,0.0,-29.75,25.25,34.68
162.459962,0.0,0.2,-9.74,0.0,0.0,0.0,-29.75,25.25,34.68
162.480042,0.05,0.24,-9.76,0.0,0.0,0.0,-30.18,25.68,35.0
162.503999,0.09,0.27,-9.81,0.0,0.0,0.0,-30.18,25.68,35.0
162.536002,0.06,0.3,-9.77,0.0,0.0,0.0,-29.5,25.25,35.75
162.559968,0.01,0.27,-9.81,0.0,0.0,0.0,-29.5,25.25,35.75
162.584018,0.0,0.24,-9.76,0.0,0.0,0.0,-29.5,25.25,35.75
162.604001,0.02,0.21,-9.77,0.0,0.0,0.0,-30.18,25.25,35.75
162.62796,0.09,0.23,-9.78,0.0,0.0,0.0,-30.18,25.25,35.75
162.648012,0.08,0.26,-9.82,0.0,0.0,0.0,-29.5,26.0,37.0
162.672008,0.06,0.28,-9.81,0.0,0.0,0.0,-29.5,26.0,37.0
162.69596,0.0,0.24,-9.77,0.0,0.0,0.0,-29.5,26.0,37.0
162.716002,0.0,0.26,-9.75,0.0,0.0,0.0,-29.75,25.68,34.68
162.739989,0.03,0.25,-9.75,0.0,0.0,0.0,-29.75,25.68,34.68
162.763919,0.07,0.24,-9.77,0.0,0.0,0.0,-29.75,24.18,35.75
162.783996,0.08,0.25,-9.81,0.0,0.0,0.0,-29.75,24.18,35.75
162.80797,0.06,0.25,-9.77,0.0,0.0,0.0,-29.5,26.37,36.18
162.827962,0.09,0.26,-9.82,0.0,0.0,0.0,-29.5,26.37,36.18
162.852006,0.04,0.27,-9.77,0.0,0.0,0.0,-29.5,26.37,36.18
162.875859,0.0,0.26,-9.78,0.0,0.0,0.0,-29.75,25.25,36.56
162.895856,0.01,0.24,-9.77,0.0,0.0,0.0,-29.75,25.25,36.56
162.919901,0.05,0.24,-9.77,0.0,0.0,0.0,-29.5,25.25,35.0
162.943866,0.07,0.25,-9.8,0.0,0.0,0.0,-29.5,25.25,35.0
162.963871,0.08,0.28,-9.81,0.0,0.0,0.0,-29.5,25.25,35.0
162.987885,0.05,0.28,-9.76,0.0,0.0,0.0,-29.75,26.0,35.0
163.007865,0.0,0.25,-9.77,0.0,0.0,0.0,-29.75,26.0,35.0
163.031878,0.01,0.25,-9.75,0.0,0.0,0.0,-29.5,25.68,36.56
163.055866,0.05,0.25,-9.8,0.0,0.0,0.0,-29.5,25.68,36.56
163.075866,0.08,0.25,-9.77,0.0,0.0,0.0,-29.5,25.68,36.56
163.099875,0.07,0.25,-9.84,0.0,0.0,0.0,-30.18,25.68,35.75
163.123863,0.04,0.24,-9.75,0.0,0.0,0.0,-30.18,25.68,35.75
163.143886,0.02,0.26,-9.74,0.0,0.0,0.0,-30.18,26.0,36.56
163.167913,0.05,0.26,-9.76,0.0,0.0,0.0,-30.18,26.0,36.56
163.187919,0.04,0.25,-9.81,0.0,0.0,0.0,-30.18,26.0,36.56
163.211798,0.08,0.27,-9.77,0.0,0.0,0.0,-29.75,25.68,35.0
163.235868,0.04,0.24,-9.78,0.0,0.0,0.0,-29.75,25.68,35.0
163.255861,0.05,0.23,-9.75,0.0,0.0,0.0,-29.5,25.68,35.75
163.279857,0.02,0.23,-9.8,0.0,0.0,0.0,-29.5,25.68,35.75
163.303854,0.04,0.24,-9.75,0.0,0.0,0.0,-29.5,25.68,35.75
163.323855,0.05,0.26,-9.81,0.0,0.0,0.0,-29.5,25.68,37.0
163.348402,0.05,0.25,-9.77,0.0,0.0,0.0,-30.18,26.37,35.37
163.367649,0.02,0.24,-9.77,0.0,0.0,0.0,-29.75,25.68,37.0
163.3917,0.03,0.25,-9.77,0.0,0.0,0.0,-29.75,25.68,37.0
163.415717,0.06,0.26,-9.77,0.0,0.0,0.0,-29.75,26.0,36.56
163.435691,0.06,0.27,-9.81,0.0,0.0,0.0,-29.75,26.0,36.56
163.459804,0.05,0.24,-9.82,0.0,0.0,0.0,-29.75,26.0,36.56
163.483792,0.04,0.24,-9.77,0.0,0.0,0.0,-30.56,25.68,35.37
163.503804,0.02,0.23,-9.78,0.0,0.0,0.0,-30.56,25.68,35.37
163.527791,0.04,0.22,-9.77,0.0,0.0,0.0,-28.68,25.25,34.68
163.559702,0.05,0.27,-9.8,0.0,0.0,0.0,-28.68,25.25,34.68
163.583791,0.07,0.26,-9.77,0.0,0.0,0.0,-28.68,25.25,34.68
163.603796,0.07,0.27,-9.78,0.0,0.0,0.0,-30.18,25.25,35.75
163.627803,0.06,0.24,-9.72,0.0,0.0,0.0,-30.18,25.25,35.75
163.651881,0.03,0.25,-9.78,0.0,0.0,0.0,-29.5,25.25,35.0
163.671881,0.06,0.23,-9.77,0.0,0.0,0.0,-29.5,25.25,35.0
163.695903,0.08,0.24,-9.82,0.0,0.0,0.0,-29.5,25.25,35.0
163.719809,0.06,0.27,-9.8,0.0,0.0,0.0,-29.75,25.25,36.18
163.739849,0.03,0.27,-9.77,0.0,0.0,0.0,-29.75,25.25,36.18
163.763895,0.01,0.25,-9.73,0.0,0.0,0.0,-29.75,25.68,35.37
163.783886,0.09,0.24,-9.86,0.0,0.0,0.0,-29.75,26.37,35.37
163.807823,0.03,0.27,-9.77,0.0,0.0,0.0,-29.75,25.68,35.37
163.831936,0.01,0.25,-9.81,0.0,0.0,0.0,-29.75,25.68,35.37
163.85192,0.02,0.26,-9.74,0.0,0.0,0.0,-29.75,25.25,35.37
163.875886,0.04,0.25,-9.83,0.0,0.0,0.0,-29.75,25.25,35.37
163.899891,0.07,0.27,-9.8,0.0,0.0,0.0,-29.75,25.25,35.37
163.919919,0.08,0.26,-9.78,0.0,0.0,0.0,-30.18,25.68,35.75
163.943888,0.02,0.24,-9.77,0.0,0.0,0.0,-30.18,25.68,35.75
163.963931,0.0,0.23,-9.73,0.0,0.0,0.0,-29.75,25.68,35.0
163.987887,0.04,0.25,-9.73,0.0,0.0,0.0,-29.75,25.68,35.0
164.01194,0.06,0.28,-9.78,0.0,0.0,0.0,-29.75,25.68,35.0
164.031894,0.07,0.28,-9.76,0.0,0.0,0.0,-29.75,26.0,35.37
164.05584,0.03,0.25,-9.8,0.0,0.0,0.0,-29.75,26.0,35.37
164.079803,0.01,0.21,-9.76,0.0,0.0,0.0,-30.56,25.25,36.18
164.099856,0.04,0.22,-9.77,0.0,0.0,0.0,-30.56,25.25,36.18
164.123794,0.03,0.26,-9.76,0.0,0.0,0.0,-30.56,25.25,36.18
164.143799,0.06,0.28,-9.78,0.0,0.0,0.0,-29.06,25.25,35.0
164.16783,0.02,0.27,-9.81,0.0,0.0,0.0,-29.06,25.25,35.0
164.191792,0.04,0.24,-9.77,0.0,0.0,0.0,-30.18,26.37,35.37
164.211595,0.01,0.22,-9.77,0.0,0.0,0.0,-30.18,26.37,35.37
164.235841,0.04,0.23,-9.75,0.0,0.0,0.0,-30.18,26.37,35.37
164.259791,0.06,0.26,-9.83,0.0,0.0,0.0,-29.5,25.68,35.75
164.279793,0.08,0.26,-9.78,0.0,0.0,0.0,-29.5,25.68,35.75
164.303897,0.06,0.27,-9.77,0.0,0.0,0.0,-30.18,25.68,35.37
164.323787,0.05,0.26,-9.8,0.0,0.0,0.0,-29.5,25.68,35.37
164.347782,0.04,0.26,-9.78,0.0,0.0,0.0,-30.56,26.0,35.37
164.371812,0.03,0.24,-9.77,0.0,0.0,0.0,-30.56,26.0,35.37
164.39179,0.04,0.25,-9.77,0.0,0.0,0.0,-30.56,26.0,35.37
164.415706,0.04,0.24,-9.77,0.0,0.0,0.0,-28.68,24.5,35.0
164.439703,0.05,0.27,-9.81,0.0,0.0,0.0,-28.68,24.5,35.0
164.459773,0.06,0.27,-9.77,0.0,0.0,0.0,-30.18,25.68,36.18
164.483813,0.03,0.25,-9.77,0.0,0.0,0.0,-30.18,25.68,36.18
164.503826,0.03,0.23,-9.78,0.0,0.0,0.0,-30.18,25.68,36.18
164.52777,0.05,0.24,-9.77,0.0,0.0,0.0,-29.5,25.68,35.0
164.5518,0.03,0.25,-9.78,0.0,0.0,0.0,-29.5,25.68,35.0
164.571766,0.06,0.28,-9.78,0.0,0.0,0.0,-30.18,24.87,36.18
164.595832,0.05,0.25,-9.78,0.0,0.0,0.0,-30.18,24.87,36.18
164.619806,0.02,0.26,-9.78,0.0,0.0,0.0,-30.18,24.87,36.18
164.639781,0.06,0.23,-9.77,0.0,0.0,0.0,-29.5,25.25,35.75
164.675652,0.03,0.25,-9.81,0.0,0.0,0.0,-29.5,25.25,35.75
164.695768,0.05,0.25,-9.78,0.0,0.0,0.0,-29.75,26.0,35.75
164.719599,0.07,0.27,-9.78,0.0,0.0,0.0,-29.75,26.0,35.75
164.739679,0.05,0.24,-9.78,0.0,0.0,0.0,-29.75,26.0,35.75
164.763712,0.03,0.25,-9.77,0.0,0.0,0.0,-29.5,25.68,35.37
164.787729,0.05,0.27,-9.77,0.0,0.0,0.0,-30.18,26.37,37.0
164.808296,0.04,0.24,-9.77,0.0,0.0,0.0,-29.5,24.87,35.0
164.831865,0.02,0.25,-9.77,0.0,0.0,0.0,-29.5,24.87,35.0
164.855858,0.03,0.24,-9.77,0.0,0.0,0.0,-29.75,24.87,34.68
164.875927,0.06,0.26,-9.8,0.0,0.0,0.0,-29.75,24.87,34.68
164.899933,0.04,0.27,-9.78,0.0,0.0,0.0,-29.75,24.87,34.68
164.919963,0.05,0.24,-9.78,0.0,0.0,0.0,-29.75,26.37,35.0
164.943738,0.03,0.22,-9.74,0.0,0.0,0.0,-29.75,26.37,35.0
164.967763,0.06,0.22,-9.77,0.0,0.0,0.0,-29.75,26.0,36.18
164.987824,0.06,0.24,-9.8,0.0,0.0,0.0,-29.75,26.0,36.18
165.011825,0.07,0.28,-9.8,0.0,0.0,0.0,-29.75,26.0,36.18
165.035867,0.03,0.26,-9.77,0.0,0.0,0.0,-29.75,24.87,35.75
165.055859,0.03,0.25,-9.75,0.0,0.0,0.0,-29.75,24.87,35.75
165.079963,0.05,0.23,-9.77,0.0,0.0,0.0,-29.5,25.68,36.56
165.099916,0.08,0.25,-9.81,0.0,0.0,0.0,-29.5,25.68,36.56
165.12394,0.1,0.25,-9.81,0.0,0.0,0.0,-29.5,25.68,36.56
165.147608,0.06,0.23,-9.8,0.0,0.0,0.0,-29.75,25.68,35.37
165.16732,0.0,0.25,-9.75,0.0,0.0,0.0,-29.75,25.68,35.37
165.191637,0.0,0.27,-9.74,0.0,0.0,0.0,-29.75,25.68,35.75
165.211526,0.04,0.27,-9.78,0.0,0.0,0.0,-29.75,25.68,35.75
165.235701,0.08,0.23,-9.78,0.0,0.0,0.0,-29.75,25.68,35.75
165.259803,0.05,0.24,-9.78,0.0,0.0,0.0,-29.5,26.0,35.0
165.279795,0.03,0.24,-9.77,0.0,0.0,0.0,-29.5,26.0,35.0
165.304546,0.0,0.23,-9.76,0.0,0.0,0.0,-30.18,24.87,35.37
165.327794,0.05,0.25,-9.77,0.0,0.0,0.0,-29.5,25.68,35.0
165.347867,0.04,0.24,-9.75,0.0,0.0,0.0,-29.5,24.5,35.75
165.371875,0.03,0.23,-9.77,0.0,0.0,0.0,-29.5,24.5,35.75
165.403883,0.03,0.25,-9.77,0.0,0.0,0.0,-29.5,24.5,35.75
165.427835,0.03,0.27,-9.78,0.0,0.0,0.0,-29.06,25.68,34.68
165.451983,0.07,0.26,-9.77,0.0,0.0,0.0,-29.06,25.68,34.68
165.471968,0.04,0.25,-9.8,0.0,0.0,0.0,-29.75,24.87,36.56
165.495968,0.04,0.21,-9.77,0.0,0.0,0.0,-29.75,24.87,36.56
165.515965,0.01,0.25,-9.77,0.0,0.0,0.0,-29.75,24.87,36.56
165.539928,0.04,0.27,-9.77,0.0,0.0,0.0,-29.5,25.25,35.0
165.563968,0.03,0.25,-9.78,0.0,0.0,0.0,-29.5,25.25,35.0
165.583966,0.03,0.25,-9.77,0.0,0.0,0.0,-29.5,24.87,35.75
165.607933,0.03,0.24,-9.81,0.0,0.0,0.0,-29.5,24.87,35.75
165.631982,0.02,0.25,-9.73,0.0,0.0,0.0,-29.5,24.87,35.75
165.651965,0.05,0.25,-9.77,0.0,0.0,0.0,-30.18,26.0,35.37
165.67592,0.04,0.26,-9.77,0.0,0.0,0.0,-30.18,26.0,35.37
165.695922,0.06,0.25,-9.8,0.0,0.0,0.0,-30.18,25.25,36.18
165.719835,0.05,0.25,-9.77,0.0,0.0,0.0,-30.18,25.25,36.18
165.743923,0.02,0.24,-9.77,0.0,0.0,0.0,-30.18,25.25,36.18
165.763888,0.06,0.24,-9.83,0.0,0.0,0.0,-29.5,25.68,35.0
165.787936,0.05,0.27,-9.76,0.0,0.0,0.0,-29.5,25.68,35.0
165.811943,0.03,0.24,-9.77,0.0,0.0,0.0,-29.5,24.87,34.18
165.831876,0.05,0.27,-9.77,0.0,0.0,0.0,-29.5,24.87,34.18
165.855856,0.05,0.27,-9.78,0.0,0.0,0.0,-29.06,25.25,35.75
165.87592,0.05,0.26,-9.77,0.0,0.0,0.0,-29.06,25.25,35.75
165.89997,0.04,0.26,-9.77,0.0,0.0,0.0,-29.06,25.25,35.75
165.924609,0.04,0.22,-9.77,0.0,0.0,0.0,-29.75,26.0,34.18
165.943803,0.02,0.24,-9.8,0.0,0.0,0.0,-29.75,26.0,34.18
165.967974,0.03,0.28,-9.77,0.0,0.0,0.0,-30.18,25.68,35.37
165.991928,0.05,0.27,-9.8,0.0,0.0,0.0,-30.18,25.68,35.37
166.011987,0.04,0.28,-9.77,0.0,0.0,0.0,-30.18,25.68,35.37
166.03598,0.04,0.26,-9.81,0.0,0.0,0.0,-30.56,26.0,35.0
166.055924,0.03,0.24,-9.75,0.0,0.0,0.0,-30.56,26.0,35.0
166.079818,0.04,0.24,-9.77,0.0,0.0,0.0,-29.5,25.68,35.0
166.103834,0.02,0.26,-9.8,0.0,0.0,0.0,-29.5,25.68,35.0
166.123773,0.04,0.28,-9.81,0.0,0.0,0.0,-29.5,25.68,35.0
166.147821,0.06,0.26,-9.78,0.0,0.0,0.0,-29.5,25.25,35.0
166.171768,0.05,0.28,-9.77,0.0,0.0,0.0,-29.5,25.25,35.0
166.191757,0.04,0.25,-9.78,0.0,0.0,0.0,-30.18,25.25,35.75
166.215848,0.04,0.24,-9.77,0.0,0.0,0.0,-30.18,25.25,35.75
166.235932,0.05,0.26,-9.77,0.0,0.0,0.0,-30.18,25.25,35.75
166.259884,0.05,0.26,-9.77,0.0,0.0,0.0,-30.56,26.37,35.37
166.283835,0.03,0.25,-9.77,0.0,0.0,0.0,-30.56,26.37,35.37
166.304579,0.05,0.27,-9.78,0.0,0.0,0.0,-29.75,26.0,35.0
166.327754,0.05,0.24,-9.78,0.0,0.0,0.0,-29.75,26.0,35.0
166.351836,0.01,0.27,-9.77,0.0,0.0,0.0,-29.5,25.25,35.37
166.371881,0.02,0.26,-9.77,0.0,0.0,0.0,-29.5,25.25,35.37
166.395938,0.04,0.27,-9.77,0.0,0.0,0.0,-29.5,25.25,35.37
166.415885,0.04,0.25,-9.8,0.0,0.0,0.0,-30.18,26.0,35.37
166.439891,0.04,0.24,-9.77,0.0,0.0,0.0,-30.18,26.0,35.37
166.46389,0.05,0.27,-9.77,0.0,0.0,0.0,-29.75,25.25,36.18
166.483876,0.02,0.24,-9.77,0.0,0.0,0.0,-29.75,25.25,36.18
166.507886,0.01,0.25,-9.77,0.0,0.0,0.0,-29.75,25.25,36.18
166.531862,0.03,0.24,-9.77,0.0,0.0,0.0,-29.75,26.37,34.18
166.55189,0.05,0.27,-9.77,0.0,0.0,0.0,-29.75,26.37,34.18
166.57589,0.03,0.24,-9.76,0.0,0.0,0.0,-29.5,24.87,36.18
166.595877,0.02,0.26,-9.77,0.0,0.0,0.0,-29.5,24.87,36.18
166.619889,0.02,0.26,-9.77,0.0,0.0,0.0,-29.5,24.87,36.18
166.643885,0.04,0.24,-9.77,0.0,0.0,0.0,-29.06,24.87,35.0
166.663883,0.06,0.26,-9.77,0.0,0.0,0.0,-29.06,24.87,35.0
166.687886,0.05,0.27,-9.81,0.0,0.0,0.0,-29.5,25.25,35.75
166.711838,0.03,0.26,-9.77,0.0,0.0,0.0,-29.5,25.25,35.75
166.7318,0.01,0.26,-9.77,0.0,0.0,0.0,-29.5,25.25,35.75
166.755794,0.03,0.26,-9.77,0.0,0.0,0.0,-29.75,25.68,34.68
166.775795,0.05,0.25,-9.81,0.0,0.0,0.0,-29.75,25.68,34.68
166.799785,0.06,0.25,-9.77,0.0,0.0,0.0,-29.06,25.68,36.18
166.823657,0.05,0.26,-9.78,0.0,0.0,0.0,-29.06,25.68,36.18
166.843877,0.05,0.24,-9.77,0.0,0.0,0.0,-29.75,26.0,35.0
166.867882,0.05,0.28,-9.82,0.0,0.0,0.0,-29.75,26.0,35.0
166.891888,0.04,0.25,-9.76,0.0,0.0,0.0,-29.75,26.0,35.0
166.911897,0.02,0.25,-9.77,0.0,0.0,0.0,-30.56,26.0,35.75
166.935885,0.02,0.24,-9.76,0.0,0.0,0.0,-30.56,26.0,35.75
166.955895,0.02,0.25,-9.76,0.0,0.0,0.0,-30.56,26.0,35.0
166.9799,0.05,0.25,-9.8,0.0,0.0,0.0,-30.56,26.0,35.0
167.003896,0.05,0.24,-9.77,0.0,0.0,0.0,-30.56,26.0,35.0
167.023893,0.04,0.23,-9.77,0.0,0.0,0.0,-29.75,25.68,35.37
167.047894,0.03,0.24,-9.77,0.0,0.0,0.0,-29.75,25.68,35.37
167.067884,0.05,0.25,-9.77,0.0,0.0,0.0,-29.5,24.87,35.0
167.09189,0.05,0.26,-9.77,0.0,0.0,0.0,-29.5,24.87,35.0
167.115889,0.04,0.24,-9.8,0.0,0.0,0.0,-29.5,24.87,35.0
167.135927,0.04,0.25,-9.77,0.0,0.0,0.0,-29.75,25.25,34.68
167.159936,0.01,0.26,-9.78,0.0,0.0,0.0,-29.75,25.25,34.68
167.183919,0.02,0.27,-9.78,0.0,0.0,0.0,-29.75,25.68,36.18
167.203922,0.02,0.24,-9.78,0.0,0.0,0.0,-29.75,25.68,36.18
167.227904,0.05,0.27,-9.77,0.0,0.0,0.0,-29.75,25.68,36.18
167.24781,0.04,0.27,-9.78,0.0,0.0,0.0,-29.75,24.87,35.75
167.271818,0.05,0.24,-9.77,0.0,0.0,0.0,-29.75,24.87,35.75
167.295872,0.01,0.24,-9.77,0.0,0.0,0.0,-29.06,26.0,34.68
167.315858,0.02,0.24,-9.77,0.0,0.0,0.0,-29.06,26.0,34.68
167.339828,0.03,0.26,-9.8,0.0,0.0,0.0,-29.06,26.0,34.68
167.363879,0.05,0.26,-9.8,0.0,0.0,0.0,-29.75,25.68,35.37
167.383916,0.05,0.24,-9.77,0.0,0.0,0.0,-29.5,24.87,35.37
167.407927,0.03,0.25,-9.77,0.0,0.0,0.0,-29.06,24.87,35.0
167.427968,0.03,0.24,-9.78,0.0,0.0,0.0,-29.06,24.87,35.0
167.451935,0.05,0.26,-9.76,0.0,0.0,0.0,-30.18,26.0,35.0
167.475923,0.05,0.27,-9.77,0.0,0.0,0.0,-30.18,26.0,35.0
167.495908,0.04,0.24,-9.77,0.0,0.0,0.0,-30.18,26.0,35.0
167.519925,0.04,0.26,-9.77,0.0,0.0,0.0,-29.75,25.68,35.0
167.54392,0.03,0.25,-9.77,0.0,0.0,0.0,-29.75,25.68,35.0
167.563966,0.03,0.24,-9.78,0.0,0.0,0.0,-29.5,24.5,34.68
167.58794,0.03,0.24,-9.81,0.0,0.0,0.0,-29.5,24.5,34.68
167.607939,0.03,0.25,-9.77,0.0,0.0,0.0,-29.5,24.5,34.68
167.63187,0.05,0.24,-9.77,0.0,0.0,0.0,-29.5,26.0,36.18
167.655836,0.04,0.27,-9.77,0.0,0.0,0.0,-29.5,26.0,36.18
167.675862,0.04,0.27,-9.78,0.0,0.0,0.0,-29.06,25.68,35.75
167.699878,0.04,0.24,-9.77,0.0,0.0,0.0,-29.06,25.68,35.75
167.723778,0.03,0.25,-9.77,0.0,0.0,0.0,-29.06,25.68,35.75
167.743603,0.03,0.25,-9.76,0.0,0.0,0.0,-29.75,25.25,35.75
167.767667,0.05,0.25,-9.77,0.0,0.0,0.0,-29.75,25.25,35.75
167.788317,0.04,0.24,-9.77,0.0,0.0,0.0,-28.68,25.25,35.75
167.811709,0.04,0.26,-9.78,0.0,0.0,0.0,-28.68,25.25,35.75
167.835722,0.01,0.27,-9.77,0.0,0.0,0.0,-28.68,25.25,35.75
167.855666,0.04,0.24,-9.8,0.0,0.0,0.0,-29.75,26.0,35.0
167.879723,0.04,0.25,-9.77,0.0,0.0,0.0,-29.75,26.0,35.0
167.903787,0.04,0.25,-9.77,0.0,0.0,0.0,-29.06,25.68,35.37
167.923772,0.03,0.25,-9.77,0.0,0.0,0.0,-29.5,26.37,35.37
167.947816,0.04,0.24,-9.76,0.0,0.0,0.0,-29.5,25.68,34.18
167.96781,0.04,0.24,-9.8,0.0,0.0,0.0,-29.5,25.68,34.18
167.991812,0.03,0.24,-9.77,0.0,0.0,0.0,-29.5,25.68,34.18
168.015765,0.04,0.24,-9.77,0.0,0.0,0.0,-29.06,25.25,35.75
168.03579,0.03,0.25,-9.81,0.0,0.0,0.0,-29.06,25.25,35.75
168.059797,0.03,0.25,-9.75,0.0,0.0,0.0,-29.06,25.68,35.0
168.08383,0.05,0.26,-9.8,0.0,0.0,0.0,-29.06,25.68,35.0
168.103783,0.05,0.26,-9.77,0.0,0.0,0.0,-29.06,25.68,35.0
168.127781,0.04,0.26,-9.77,0.0,0.0,0.0,-30.18,26.37,35.75
168.147805,0.03,0.25,-9.77,0.0,0.0,0.0,-30.18,26.37,35.75
168.171661,0.04,0.27,-9.77,0.0,0.0,0.0,-29.5,25.25,36.56
168.195806,0.06,0.24,-9.77,0.0,0.0,0.0,-29.5,25.25,36.56
168.215738,0.05,0.26,-9.78,0.0,0.0,0.0,-29.5,25.25,36.56
168.239661,0.04,0.26,-9.8,0.0,0.0,0.0,-29.75,25.25,35.75
168.26366,0.04,0.26,-9.76,0.0,0.0,0.0,-29.75,25.25,35.75
168.283765,0.04,0.26,-9.77,0.0,0.0,0.0,-29.06,25.68,35.75
168.308479,0.05,0.28,-9.77,0.0,0.0,0.0,-29.06,25.68,35.75
168.327672,0.03,0.26,-9.78,0.0,0.0,0.0,-29.06,25.68,35.75
168.351678,0.05,0.26,-9.77,0.0,0.0,0.0,-28.68,26.0,35.75
168.375667,0.03,0.26,-9.77,0.0,0.0,0.0,-28.68,26.0,35.75
168.396338,0.02,0.27,-9.77,0.0,0.0,0.0,-29.5,25.25,35.37
168.419711,0.06,0.25,-9.78,0.0,0.0,0.0,-29.5,25.25,35.37
168.443718,0.04,0.25,-9.77,0.0,0.0,0.0,-29.5,25.25,35.37
168.4637,0.01,0.24,-9.81,0.0,0.0,0.0,-29.06,25.68,35.75
168.488318,0.02,0.28,-9.77,0.0,0.0,0.0,-29.06,25.68,35.75
168.507661,0.06,0.25,-9.77,0.0,0.0,0.0,-29.5,25.25,35.75
168.531698,0.05,0.25,-9.77,0.0,0.0,0.0,-29.5,25.25,35.75
168.555675,0.03,0.25,-9.76,0.0,0.0,0.0,-29.5,25.68,35.0
168.575686,0.03,0.25,-9.78,0.0,0.0,0.0,-29.5,25.68,35.0
168.599707,0.04,0.25,-9.77,0.0,0.0,0.0,-29.5,25.68,35.0
168.623663,0.03,0.24,-9.77,0.0,0.0,0.0,-29.75,24.5,35.37
168.643819,0.04,0.28,-9.77,0.0,0.0,0.0,-29.75,24.5,35.37
168.667821,0.04,0.24,-9.77,0.0,0.0,0.0,-29.06,26.37,36.18
168.688561,0.03,0.26,-9.78,0.0,0.0,0.0,-29.06,26.37,36.18
168.711834,0.04,0.23,-9.78,0.0,0.0,0.0,-29.06,26.37,36.18
168.735723,0.03,0.26,-9.77,0.0,0.0,0.0,-30.18,25.68,35.0
168.755653,0.04,0.26,-9.76,0.0,0.0,0.0,-30.18,25.68,35.0
168.779713,0.04,0.24,-9.77,0.0,0.0,0.0,-29.5,25.68,35.75
168.800333,0.01,0.26,-9.77,0.0,0.0,0.0,-29.5,25.68,35.75
168.823652,0.04,0.25,-9.77,0.0,0.0,0.0,-29.5,25.68,35.75
168.847728,0.04,0.24,-9.78,0.0,0.0,0.0,-30.18,25.25,35.37
168.867673,0.04,0.24,-9.8,0.0,0.0,0.0,-30.18,25.25,35.37
168.891692,0.03,0.25,-9.76,0.0,0.0,0.0,-29.5,25.68,35.0
168.915694,0.05,0.24,-9.77,0.0,0.0,0.0,-29.5,25.68,35.0
168.935676,0.03,0.23,-9.8,0.0,0.0,0.0,-29.5,25.68,35.0
168.959826,0.02,0.24,-9.77,0.0,0.0,0.0,-29.5,24.87,36.18
168.979812,0.03,0.25,-9.81,0.0,0.0,0.0,-29.5,24.87,36.18
169.003775,0.04,0.25,-9.73,0.0,0.0,0.0,-30.18,25.25,36.56
169.027773,0.04,0.25,-9.8,0.0,0.0,0.0,-30.18,25.25,36.56
169.047818,0.05,0.26,-9.75,0.0,0.0,0.0,-29.5,25.25,33.75
169.071587,0.04,0.26,-9.85,0.0,0.0,0.0,-29.5,25.25,33.75
169.095944,0.04,0.24,-9.77,0.0,0.0,0.0,-29.5,25.25,33.75
169.115948,0.04,0.25,-9.8,0.0,0.0,0.0,-29.06,25.68,36.18
169.139899,0.03,0.25,-9.75,0.0,0.0,0.0,-29.06,25.68,36.18
169.159889,0.03,0.27,-9.8,0.0,0.0,0.0,-29.5,26.0,35.0
169.183943,0.03,0.24,-9.77,0.0,0.0,0.0,-29.5,26.0,35.0
169.207717,0.04,0.25,-9.81,0.0,0.0,0.0,-29.5,26.0,35.0
169.227875,0.03,0.26,-9.75,0.0,0.0,0.0,-29.75,25.25,35.37
169.251758,0.03,0.24,-9.8,0.0,0.0,0.0,-29.75,25.25,35.37
169.275804,0.04,0.25,-9.76,0.0,0.0,0.0,-29.5,25.68,35.75
169.295845,0.02,0.24,-9.81,0.0,0.0,0.0,-29.5,25.68,35.75
169.319938,0.05,0.25,-9.77,0.0,0.0,0.0,-29.5,25.68,35.75
169.339995,0.05,0.24,-9.81,0.0,0.0,0.0,-29.5,25.68,36.18
169.364109,0.05,0.25,-9.77,0.0,0.0,0.0,-29.5,25.68,36.18
169.387988,0.06,0.25,-9.77,0.0,0.0,0.0,-29.06,25.68,35.0
169.408074,0.04,0.26,-9.77,0.0,0.0,0.0,-29.06,25.68,35.0
169.432095,0.05,0.24,-9.81,0.0,0.0,0.0,-29.06,25.68,35.0
169.45607,0.05,0.27,-9.77,0.0,0.0,0.0,-29.75,25.68,35.37
169.476114,0.02,0.27,-9.82,0.0,0.0,0.0,-29.75,25.68,35.37
169.500105,0.02,0.26,-9.77,0.0,0.0,0.0,-29.75,25.68,35.75
169.520063,0.04,0.25,-9.81,0.0,0.0,0.0,-29.75,25.68,35.75
169.543976,0.02,0.25,-9.8,0.0,0.0,0.0,-29.5,25.68,35.0
169.568032,0.02,0.25,-9.77,0.0,0.0,0.0,-29.5,25.68,35.0
169.587969,0.03,0.25,-9.78,0.0,0.0,0.0,-29.75,24.87,35.0
169.612004,0.06,0.23,-9.77,0.0,0.0,0.0,-29.75,24.87,35.0
169.635983,0.06,0.24,-9.78,0.0,0.0,0.0,-29.75,24.87,35.0
169.655967,0.04,0.24,-9.77,0.0,0.0,0.0,-29.5,25.68,35.37
169.680017,0.03,0.26,-9.77,0.0,0.0,0.0,-29.5,25.68,35.37
169.700011,0.04,0.24,-9.78,0.0,0.0,0.0,-29.5,25.25,36.56
169.723985,0.05,0.24,-9.77,0.0,0.0,0.0,-29.5,25.25,36.56
169.747898,0.05,0.27,-9.77,0.0,0.0,0.0,-29.5,25.25,36.56
169.767927,0.04,0.23,-9.78,0.0,0.0,0.0,-29.06,26.37,35.0
169.791867,0.04,0.25,-9.77,0.0,0.0,0.0,-29.06,26.37,35.0
169.815859,0.04,0.25,-9.75,0.0,0.0,0.0,-29.06,24.87,35.37
169.835801,0.04,0.24,-9.77,0.0,0.0,0.0,-29.06,24.87,35.37
169.859812,0.03,0.24,-9.77,0.0,0.0,0.0,-29.06,24.87,35.37
169.879842,0.04,0.27,-9.77,0.0,0.0,0.0,-29.06,26.37,35.37
169.90384,0.05,0.26,-9.82,0.0,0.0,0.0,-29.06,26.37,35.37
169.927817,0.03,0.25,-9.77,0.0,0.0,0.0,-29.75,24.87,35.75
169.947819,0.06,0.25,-9.77,0.0,0.0,0.0,-29.75,24.87,35.75
169.971758,0.02,0.26,-9.75,0.0,0.0,0.0,-29.75,24.87,35.75
169.99183,0.03,0.26,-9.78,0.0,0.0,0.0,-29.06,26.0,35.37
170.015817,0.04,0.27,-9.78,0.0,0.0,0.0,-29.06,26.0,35.37
170.039823,0.02,0.26,-9.78,0.0,0.0,0.0,-29.06,25.25,35.37
170.059814,0.04,0.25,-9.82,0.0,0.0,0.0,-29.06,25.25,35.37
170.083814,0.05,0.26,-9.78,0.0,0.0,0.0,-29.5,25.68,35.0
170.107818,0.02,0.24,-9.76,0.0,0.0,0.0,-29.5,25.68,35.0
170.127809,0.05,0.26,-9.77,0.0,0.0,0.0,-29.5,25.68,35.0
170.15355,0.03,0.25,-9.78,0.0,0.0,0.0,-30.18,26.0,35.37
170.171298,0.05,0.24,-9.77,0.0,0.0,0.0,-30.18,26.0,35.37
170.195546,0.04,0.26,-9.8,0.0,0.0,0.0,-29.75,25.25,36.18
170.219516,0.03,0.25,-9.81,0.0,0.0,0.0,-29.75,25.25,36.18
170.239592,0.05,0.25,-9.77,0.0,0.0,0.0,-29.75,25.25,36.18
170.263575,0.04,0.24,-9.77,0.0,0.0,0.0,-29.5,25.68,35.37
170.287658,0.03,0.26,-9.77,0.0,0.0,0.0,-29.5,25.68,35.37
170.30829,0.04,0.25,-9.81,0.0,0.0,0.0,-29.06,24.87,36.18
170.331676,0.05,0.24,-9.77,0.0,0.0,0.0,-29.06,24.87,36.18
170.351675,0.05,0.27,-9.78,0.0,0.0,0.0,-29.06,24.87,36.18
170.375679,0.06,0.26,-9.78,0.0,0.0,0.0,-30.18,26.37,36.18
170.399662,0.05,0.26,-9.8,0.0,0.0,0.0,-30.18,26.37,36.18
170.419678,0.06,0.26,-9.77,0.0,0.0,0.0,-29.06,25.25,35.75
170.443775,0.06,0.25,-9.8,0.0,0.0,0.0,-29.06,25.25,35.75
170.467776,0.05,0.24,-9.76,0.0,0.0,0.0,-29.06,25.25,35.75
170.487781,0.03,0.27,-9.78,0.0,0.0,0.0,-30.18,26.0,35.75
170.511774,0.04,0.26,-9.77,0.0,0.0,0.0,-30.18,26.0,35.75
170.535843,0.03,0.24,-9.77,0.0,0.0,0.0,-29.5,26.37,35.75
170.55577,0.02,0.25,-9.8,0.0,0.0,0.0,-29.5,26.37,35.75
170.579769,0.04,0.25,-9.78,0.0,0.0,0.0,-29.5,26.37,35.75
170.599789,0.02,0.25,-9.78,0.0,0.0,0.0,-29.75,26.0,35.37
170.623777,0.04,0.26,-9.78,0.0,0.0,0.0,-29.5,26.0,36.56
170.647773,0.03,0.25,-9.78,0.0,0.0,0.0,-29.75,26.37,36.18
170.667774,0.04,0.26,-9.77,0.0,0.0,0.0,-29.75,26.37,36.18
170.691768,0.04,0.27,-9.78,0.0,0.0,0.0,-28.37,25.25,35.75
170.71173,0.05,0.24,-9.81,0.0,0.0,0.0,-28.37,25.25,35.75
170.735662,0.01,0.25,-9.78,0.0,0.0,0.0,-28.37,25.25,35.75
170.759658,0.05,0.27,-9.78,0.0,0.0,0.0,-29.75,25.68,36.18
170.779812,0.02,0.26,-9.77,0.0,0.0,0.0,-29.75,25.68,36.18
170.804452,0.03,0.27,-9.78,0.0,0.0,0.0,-29.5,26.0,36.18
170.827754,0.03,0.25,-9.77,0.0,0.0,0.0,-29.5,26.0,36.18
170.847878,0.06,0.23,-9.77,0.0,0.0,0.0,-29.5,26.0,36.18
170.871834,0.03,0.28,-9.77,0.0,0.0,0.0,-30.18,26.0,34.68
170.891837,0.05,0.27,-9.77,0.0,0.0,0.0,-30.18,26.0,34.68
170.915874,0.02,0.26,-9.75,0.0,0.0,0.0,-29.06,26.0,35.75
170.939834,0.04,0.27,-9.81,0.0,0.0,0.0,-29.06,26.0,35.75
170.959873,0.05,0.25,-9.77,0.0,0.0,0.0,-29.06,26.0,35.75
170.983876,0.04,0.25,-9.78,0.0,0.0,0.0,-29.06,25.68,35.0
171.007829,0.04,0.25,-9.77,0.0,0.0,0.0,-29.06,25.68,35.0
171.027877,0.04,0.25,-9.77,0.0,0.0,0.0,-29.5,25.68,34.68
171.052486,0.04,0.26,-9.78,0.0,0.0,0.0,-29.5,25.68,34.68
171.072477,0.02,0.26,-9.76,0.0,0.0,0.0,-29.5,25.68,34.68
171.095902,0.06,0.24,-9.77,0.0,0.0,0.0,-29.5,25.68,36.56
171.11983,0.04,0.26,-9.77,0.0,0.0,0.0,-29.5,25.68,36.56
171.139835,0.03,0.24,-9.76,0.0,0.0,0.0,-29.06,26.37,35.0
171.163882,0.05,0.24,-9.77,0.0,0.0,0.0,-29.75,26.0,35.0
171.187833,0.05,0.26,-9.8,0.0,0.0,0.0,-29.75,25.25,35.37
171.207626,0.04,0.25,-9.77,0.0,0.0,0.0,-29.75,25.25,35.37
171.231753,0.02,0.24,-9.78,0.0,0.0,0.0,-29.75,25.25,35.37
171.251849,0.04,0.24,-9.77,0.0,0.0,0.0,-29.75,25.68,35.0
171.275837,0.04,0.24,-9.8,0.0,0.0,0.0,-29.75,25.68,35.0
171.300492,0.04,0.26,-9.76,0.0,0.0,0.0,-29.06,25.68,36.18
171.319847,0.04,0.25,-9.85,0.0,0.0,0.0,-29.06,25.68,36.18
171.34387,0.05,0.25,-9.77,0.0,0.0,0.0,-29.06,25.68,36.18
171.367738,0.04,0.25,-9.78,0.0,0.0,0.0,-29.06,25.25,34.68
171.387827,0.05,0.24,-9.76,0.0,0.0,0.0,-29.06,25.25,34.68
171.411871,0.04,0.24,-9.77,0.0,0.0,0.0,-28.68,25.68,36.18
171.435829,0.04,0.25,-9.78,0.0,0.0,0.0,-28.68,25.68,36.18
171.455825,0.03,0.25,-9.78,0.0,0.0,0.0,-28.68,25.68,36.18
171.479869,0.04,0.25,-9.77,0.0,0.0,0.0,-29.5,25.68,36.18
171.499876,0.04,0.25,-9.8,0.0,0.0,0.0,-29.5,25.68,36.18
171.535899,0.05,0.26,-9.77,0.0,0.0,0.0,-28.68,26.37,36.56
171.555784,0.03,0.25,-9.82,0.0,0.0,0.0,-28.68,26.37,36.56
171.579872,0.05,0.25,-9.78,0.0,0.0,0.0,-28.68,26.37,36.56
171.603865,0.03,0.27,-9.77,0.0,0.0,0.0,-29.75,25.68,34.68
171.623823,0.04,0.24,-9.75,0.0,0.0,0.0,-29.75,25.68,34.68
171.647875,0.04,0.25,-9.77,0.0,0.0,0.0,-28.68,26.37,35.0
171.667837,0.04,0.26,-9.78,0.0,0.0,0.0,-28.68,26.37,35.0
171.691859,0.04,0.24,-9.77,0.0,0.0,0.0,-29.75,25.25,35.75
171.715954,0.04,0.24,-9.81,0.0,0.0,0.0,-29.75,25.25,35.75
171.736049,0.05,0.24,-9.78,0.0,0.0,0.0,-29.75,25.25,35.75
171.759974,0.03,0.26,-9.78,0.0,0.0,0.0,-29.5,25.68,36.18
171.78402,0.05,0.24,-9.77,0.0,0.0,0.0,-29.5,25.68,36.18
171.804004,0.05,0.24,-9.8,0.0,0.0,0.0,-29.75,26.37,36.56
171.828015,0.03,0.24,-9.77,0.0,0.0,0.0,-29.75,26.37,36.56
171.851992,0.04,0.26,-9.75,0.0,0.0,0.0,-29.75,26.37,36.56
171.871964,0.05,0.27,-9.77,0.0,0.0,0.0,-29.06,26.0,37.0
171.896088,0.04,0.26,-9.8,0.0,0.0,0.0,-29.06,26.0,37.0
171.916,0.02,0.25,-9.77,0.0,0.0,0.0,-29.5,25.68,35.75
171.940111,0.03,0.24,-9.78,0.0,0.0,0.0,-29.5,25.68,35.75
171.964092,0.01,0.25,-9.77,0.0,0.0,0.0,-29.5,25.68,35.75
171.98407,0.02,0.25,-9.8,0.0,0.0,0.0,-29.5,26.37,35.37
172.008106,0.05,0.26,-9.77,0.0,0.0,0.0,-29.5,26.37,35.37
172.027944,0.02,0.24,-9.8,0.0,0.0,0.0,-29.5,24.87,36.56
172.051991,0.03,0.24,-9.8,0.0,0.0,0.0,-29.5,24.87,36.56
172.076015,0.02,0.25,-9.75,0.0,0.0,0.0,-29.5,24.87,36.56
172.095847,0.03,0.26,-9.77,0.0,0.0,0.0,-29.75,24.87,34.68
172.119819,0.04,0.26,-9.74,0.0,0.0,0.0,-29.75,24.87,34.68
172.143854,0.05,0.25,-9.81,0.0,0.0,0.0,-29.06,25.68,35.75
172.163864,0.03,0.25,-9.61,0.0,0.0,0.0,-29.06,26.0,34.68
172.187795,0.02,0.26,-9.89,0.0,0.0,0.0,-29.06,25.68,35.0
172.207568,0.03,0.25,-9.38,0.0,0.0,0.0,-29.06,25.68,35.0
172.231889,-0.07,0.2,-10.21,0.0,0.01,0.0,-29.06,25.68,35.0
172.255836,-0.75,-2.39,-10.07,-0.12,0.07,0.14,-29.5,26.37,35.75
172.275846,0.91,0.33,-11.05,-0.21,-0.15,0.5,-29.5,26.37,35.75
172.299838,0.8,0.03,-10.73,-0.08,-0.77,0.54,-28.75,26.0,36.18
172.323956,-1.29,-0.32,-10.25,0.28,0.01,0.44,-28.75,26.0,36.18
172.343858,-3.06,-1.52,-15.39,0.51,-0.36,-0.4,-28.75,26.0,36.18
172.367825,0.39,-2.09,-14.62,1.67,-1.53,-1.54,-27.56,26.75,35.25
172.387811,0.24,2.08,-13.88,-0.38,-2.13,-0.49,-27.56,26.75,35.25
172.411858,-2.37,5.99,-16.86,-0.94,-2.4,-0.69,-27.56,26.75,35.25
172.435826,-3.5,1.31,-19.3,-2.4,-3.09,-0.63,-27.56,26.75,35.25
172.455854,-2.2,2.19,-16.85,-1.9,-3.86,-0.99,-27.56,26.75,35.25
172.479855,-4.84,3.23,-17.16,-1.58,-4.09,-0.96,-23.87,24.87,41.25
172.503813,-4.76,-0.76,-14.45,-1.29,-4.22,-0.82,-23.87,24.87,41.25
172.523815,-2.9,0.18,-10.05,-1.48,-3.77,-0.94,-15.0,21.18,47.18
172.547853,-1.78,0.68,-7.51,-2.57,-2.77,-0.28,-15.0,21.18,47.18
172.567813,-4.17,-1.45,-7.52,-2.47,-2.09,0.16,-15.0,21.18,47.18
172.591861,-2.76,0.56,-6.06,-0.65,-2.4,-0.15,-5.18,16.25,50.5
172.615933,-2.95,1.37,-5.41,-0.45,-2.11,0.24,-5.18,16.25,50.5
172.635807,-4.04,1.95,-5.31,-0.02,-1.88,0.67,2.5,11.75,50.87
172.659812,-3.93,3.23,-3.5,-0.14,-1.58,0.76,2.5,11.75,50.87
172.683906,-3.08,3.75,-2.83,-0.33,-1.26,0.36,2.5,11.75,50.87
172.70391,-4.01,0.24,-5.84,-0.04,-0.25,0.05,12.18,10.18,47.56
172.72783,-3.09,3.85,-4.75,-0.13,0.1,0.53,12.18,10.18,47.56
172.747868,-4.33,4.82,-3.19,-0.02,0.6,0.34,13.37,9.87,47.75
172.771837,-3.36,3.25,-3.76,-0.21,1.1,-0.06,13.37,9.87,47.75
172.795829,-3.44,2.56,-5.46,-0.52,1.65,0.0,12.25,9.0,49.56
172.815856,-4.11,2.48,-7.83,-0.75,2.01,0.38,12.25,9.0,49.56
172.839842,-3.95,5.17,-11.16,-1.14,2.25,0.71,12.25,9.0,49.56
172.863859,-3.04,6.93,-9.98,-0.8,2.29,0.77,9.0,8.25,50.0
172.883906,-4.28,7.71,-8.47,-0.21,2.23,0.48,9.0,8.25,50.0
172.907952,-4.13,6.43,-7.58,0.21,2.1,-0.11,3.68,7.5,51.18
172.927957,-4.13,4.87,-8.25,0.56,2.09,-0.2,3.68,7.5,51.18
172.951921,-3.75,4.72,-10.55,0.08,2.13,-0.03,3.68,7.5,51.18
172.975945,-3.64,4.71,-11.84,0.13,1.81,0.34,-1.75,6.75,49.18
172.995958,-2.87,6.15,-10.36,0.94,1.24,0.56,-1.75,6.75,49.18
173.019908,-4.84,7.1,-7.86,1.16,0.99,0.54,-6.25,8.56,49.18
173.067819,-4.69,3.98,-6.26,0.18,1.23,0.41,-6.25,8.56,49.18
173.087756,-3.67,1.6,-9.15,0.77,0.34,0.57,-10.18,11.56,47.87
173.10777,-4.44,2.12,-8.1,1.27,0.08,0.71,-10.18,11.56,47.87
173.131661,-3.73,2.4,-8.27,0.94,0.14,0.34,-10.18,11.56,47.87
173.155841,-4.18,-0.04,-8.85,0.68,0.19,0.28,-9.06,13.06,47.56
173.17595,-3.66,0.65,-9.88,1.39,-0.24,0.29,-9.06,13.06,47.56
173.199978,-3.65,0.52,-10.3,1.01,-0.3,0.71,-9.37,16.06,48.18
173.219919,-3.35,0.64,-9.24,0.98,-0.39,0.98,-9.37,16.06,48.18
173.24397,-3.01,1.34,-7.91,1.42,-0.57,0.82,-9.37,16.06,48.18
173.268007,-3.34,1.58,-8.02,1.08,-0.28,0.55,-7.18,18.25,45.5
173.287975,-2.9,0.81,-8.85,0.67,-0.02,0.27,-7.18,18.25,45.5
173.312005,-2.61,0.25,-9.69,0.53,0.05,0.18,-4.56,21.06,46.56
173.335978,-2.79,0.59,-10.9,0.66,-0.02,0.17,-4.56,21.06,46.56
173.355999,-2.66,0.16,-9.49,0.27,-0.05,0.25,-4.56,21.06,46.56
173.379976,-2.8,-0.32,-8.32,0.23,-0.09,0.27,-4.56,21.37,46.18
173.400059,-3.4,0.12,-8.73,0.76,-0.04,0.0,-4.56,21.37,46.18
173.423979,-3.14,-0.08,-9.11,0.87,-0.09,-0.22,-4.18,22.18,46.18
173.448075,-2.92,-0.17,-9.85,0.46,-0.03,-0.15,-4.18,22.18,46.18
173.468062,-2.59,-0.54,-9.1,0.08,0.09,0.18,-4.18,22.18,46.18
173.492058,-3.28,0.5,-8.86,0.56,0.05,0.34,-3.37,24.06,44.87
173.51605,-2.64,0.57,-7.75,0.89,-0.11,0.08,-3.37,24.06,44.87
173.535984,-3.12,-0.57,-8.1,1.18,0.27,0.43,-4.56,24.06,45.25
173.560065,-3.01,-0.43,-9.3,0.8,0.15,0.57,-4.56,24.06,45.25
173.591987,-3.18,-0.3,-8.59,0.59,0.12,0.76,-4.56,24.06,45.25
173.615981,-2.04,-0.37,-7.97,0.71,-0.59,0.54,-2.68,27.37,44.5
173.639984,-2.58,-0.15,-8.19,0.42,-0.24,0.62,-2.68,27.37,43.18
173.659971,-2.87,-0.11,-8.23,0.25,-0.26,0.54,-2.68,27.37,43.18
173.684072,-3.82,-0.63,-7.93,0.1,-0.31,0.48,-0.06,28.56,42.0
173.704049,-2.45,-0.18,-8.94,0.03,-0.29,0.26,-0.06,28.56,42.0
173.728025,-1.83,-0.38,-9.42,0.02,0.2,0.36,-0.06,28.56,42.0
173.751765,0.4,0.61,-7.59,-0.1,0.65,0.56,1.0,28.56,42.37
173.771991,-2.22,-0.02,-9.1,0.26,0.03,0.76,1.0,28.56,42.37
173.795981,-3.88,-0.19,-8.9,0.11,-0.03,0.56,1.37,28.56,43.18
173.819975,-3.02,-0.09,-8.98,-0.01,0.04,0.38,1.37,28.56,43.18
173.839949,-2.52,-0.09,-9.78,0.0,0.07,0.36,1.37,28.56,43.18
173.864028,-3.45,0.0,-9.86,0.03,0.18,0.42,1.75,27.37,41.18
173.883986,-3.61,0.04,-9.72,0.01,0.26,0.33,1.75,27.37,41.18
173.907978,-3.35,0.1,-9.65,-0.03,0.33,0.3,2.5,28.56,41.56
173.931977,-2.99,0.28,-9.41,-0.03,0.37,0.27,2.5,28.56,41.56
173.963974,-2.65,0.33,-9.21,0.01,0.28,0.22,2.5,28.56,41.56
173.988066,-2.61,0.54,-9.18,0.05,0.2,0.22,1.37,27.75,40.75
174.00807,-2.64,0.57,-8.96,0.09,0.03,0.16,1.37,27.75,40.75
174.031986,-2.56,0.59,-9.14,0.08,0.0,0.09,2.5,28.87,42.37
174.055954,-2.13,0.65,-8.94,0.1,-0.02,0.05,2.5,28.87,42.37
174.075971,-2.39,0.66,-9.17,0.08,-0.02,0.07,2.5,28.87,42.37
174.099976,-2.41,0.71,-9.42,0.13,0.0,0.02,2.5,28.18,40.37
174.11997,-2.72,0.67,-9.51,0.39,-0.11,-0.09,2.5,28.18,40.37
174.144019,-2.63,0.95,-8.56,-0.39,0.07,-0.1,1.75,29.68,40.75
174.167955,-2.44,0.33,-9.39,-0.31,0.08,-0.18,1.75,29.68,40.75
174.187986,-3.18,1.4,-9.77,-0.3,-0.02,-0.17,1.37,29.68,41.18
174.224028,-3.0,0.43,-9.66,-0.37,0.05,-0.21,1.37,29.68,41.18
174.243966,-2.69,0.44,-9.83,-0.39,0.23,-0.26,1.37,29.68,41.18
174.267972,-2.66,0.35,-9.8,-0.42,0.33,-0.26,1.37,28.18,41.56
174.29195,-2.35,0.78,-9.67,-0.5,0.37,-0.28,1.37,28.18,41.56
174.323999,-1.87,0.8,-9.93,-0.81,0.41,-0.27,1.0,28.56,41.56
174.347996,-2.29,0.12,-10.23,-0.9,0.44,-0.12,1.0,28.56,41.56
174.36796,-2.83,0.51,-9.73,-0.46,0.22,-0.1,1.0,28.56,41.56
174.392056,-2.49,0.94,-10.13,-0.34,0.07,-0.35,-1.18,26.68,42.37
174.41608,-1.95,0.79,-9.99,-0.3,-0.11,-0.54,-1.18,26.68,42.37
174.435973,-2.22,1.1,-9.84,-0.34,-0.07,-0.45,-1.18,25.56,44.37
174.46011,-1.61,0.93,-10.02,-0.62,0.17,-0.34,-1.18,25.56,44.37
174.480056,-2.0,1.02,-9.55,-1.07,0.29,0.0,-1.18,25.56,44.37
174.504064,-1.78,2.52,-10.11,-1.5,0.19,-0.29,-3.06,22.56,44.75
174.528039,-1.55,2.95,-9.78,-1.79,0.18,-0.32,-3.06,22.56,44.75
174.54807,-1.2,3.08,-9.46,-1.9,0.2,-0.34,-4.18,19.18,46.37
174.572013,-1.62,3.54,-8.77,-1.77,0.24,-0.41,-4.18,19.18,46.37
174.596029,-1.35,3.63,-8.52,-1.64,0.2,-0.48,-3.75,15.5,48.0
174.615981,-0.92,3.86,-8.1,-1.01,0.02,-0.62,-3.75,15.5,48.0
174.639971,-0.89,4.05,-8.28,-0.92,0.0,-0.61,-3.75,15.5,48.0
174.66001,-1.4,3.24,-8.64,-0.84,0.45,-0.45,-6.06,10.56,49.5
174.683985,-2.33,3.17,-8.89,-0.73,0.22,-0.47,-6.06,10.56,49.5
174.7078,-1.45,3.45,-8.38,-0.67,0.18,-0.48,-5.68,10.25,48.68
174.728028,-1.45,3.22,-8.02,-0.45,0.39,-0.3,-5.68,10.25,48.68
174.751982,-1.25,4.13,-8.25,-0.37,0.35,-0.28,-5.68,10.25,48.68
174.772012,-1.33,4.03,-7.36,-0.34,-0.2,-0.32,-7.56,7.18,49.87
174.796024,-1.6,3.63,-7.5,-0.6,-0.55,-0.39,-7.56,7.18,49.87
174.819978,-1.93,3.55,-8.3,-0.64,-0.64,-0.39,-6.75,6.56,50.68
174.840017,-1.75,3.59,-8.4,-0.36,-0.38,-0.31,-6.75,6.56,50.68
174.864101,-1.42,4.18,-8.69,-0.34,-0.32,-0.26,-6.75,6.56,50.68
174.88805,-1.26,4.32,-8.69,-0.25,-0.15,0.04,-6.75,4.25,49.18
174.908026,-1.58,4.29,-8.42,-0.18,-0.12,0.16,-6.75,4.25,49.18
174.931994,-2.76,4.09,-8.64,-0.25,-0.31,0.0,-5.25,4.25,50.68
174.951956,-1.83,4.4,-8.88,-0.14,-0.48,-0.29,-5.25,4.25,50.68
174.976117,-1.64,5.09,-9.52,-0.11,-0.32,-0.17,-5.25,4.25,50.68
174.999884,-1.87,4.57,-9.21,-0.18,-0.13,-0.08,-5.25,2.87,50.37
175.019971,-2.56,3.83,-8.83,-0.07,-0.14,-0.12,-5.25,2.87,50.37
175.043976,-1.72,4.37,-9.15,-0.51,-0.08,-0.54,-4.18,2.06,50.68
175.06797,-2.25,3.54,-8.66,-0.43,-0.01,-0.46,-4.18,2.06,50.68
175.088038,-2.68,3.22,-8.21,-0.42,0.01,-0.41,-4.56,1.37,51.87
175.112097,-1.96,3.81,-8.14,-0.35,-0.25,-0.66,-4.56,1.37,51.87
175.132085,-2.02,4.08,-8.65,-0.3,-0.1,-0.43,-4.56,1.37,51.87
175.156795,-2.04,4.48,-9.19,-0.16,-0.01,-0.19,-4.56,-0.87,51.5
175.18354,-2.23,4.57,-9.17,-0.15,-0.04,-0.14,-4.56,-0.87,51.5
175.199612,-2.18,4.69,-8.81,-0.15,0.06,-0.22,-4.56,-0.87,50.68
175.22355,-2.82,4.63,-9.5,-0.09,-0.01,0.03,-4.56,-0.87,50.68
175.247597,-2.74,5.01,-9.32,-0.07,-0.07,0.13,-4.56,-0.87,50.68
175.267664,-2.42,5.24,-9.22,0.0,-0.13,0.5,-4.87,-1.56,51.87
175.292294,-2.6,5.8,-9.42,-0.04,-0.15,0.66,-4.87,-1.56,51.87
175.312328,-3.11,5.53,-9.31,-0.17,-0.21,0.48,-3.06,-0.5,51.06
175.335677,-3.57,5.19,-8.52,-0.28,-0.22,0.25,-3.06,-0.5,51.06
175.35962,-3.19,4.76,-8.06,-0.33,-0.27,0.09,-3.75,-1.56,51.87
175.379718,-2.67,5.46,-7.95,-0.27,-0.06,0.08,-3.75,-1.56,51.87
175.403755,-2.6,5.55,-8.06,-0.24,-0.11,0.21,-3.75,-1.56,51.87
175.427703,-3.03,5.18,-7.93,-0.22,-0.18,0.05,-2.68,-2.37,51.5
175.447665,-3.15,4.72,-7.38,-0.31,-0.04,-0.05,-2.68,-2.37,51.5
175.471809,-2.99,4.21,-7.08,-0.41,0.1,-0.36,-3.37,-3.06,49.87
175.491807,-2.71,3.14,-6.41,-0.34,0.32,-0.44,-3.37,-3.06,49.87
175.515777,0.83,4.09,-5.85,-0.93,0.53,0.15,-3.37,-3.06,49.87
175.539809,-1.51,4.88,-9.49,-0.61,0.29,-0.26,-2.68,-3.5,50.37
175.559816,-2.0,4.74,-7.38,-0.54,0.46,0.13,-2.68,-3.5,50.37
175.583791,-1.86,6.03,-7.75,0.44,-0.35,-0.44,-4.56,-5.37,49.5
175.607814,-1.84,6.46,-7.9,0.17,-0.07,-0.33,-4.56,-5.37,49.5
175.628541,-2.41,5.94,-8.31,-0.08,0.05,-0.24,-3.75,-4.56,49.18
175.651775,-2.76,5.49,-8.18,-0.26,0.17,-0.24,-3.75,-4.56,49.18
175.671775,-2.54,5.45,-7.86,-0.39,0.1,-0.42,-3.75,-4.56,49.18
175.695814,-3.5,4.01,-8.39,0.06,0.34,-0.21,-3.75,-3.87,49.5
175.719701,-2.14,5.23,-8.33,-0.33,0.13,-0.07,-3.75,-3.87,49.5
175.739675,-2.62,5.51,-8.77,-0.34,0.23,-0.01,-3.75,-4.56,48.68
175.763699,-2.33,6.06,-8.94,-0.03,0.2,-0.13,-3.75,-4.56,48.68
175.788266,-2.22,6.61,-7.94,0.22,0.23,-0.11,-3.75,-4.56,48.68
175.808337,-1.76,4.84,-7.03,0.08,0.24,-0.11,-5.25,-4.56,49.5
175.831672,-2.91,4.51,-6.48,-0.12,0.21,-0.31,-5.25,-4.56,49.5
175.851652,-2.9,5.03,-6.21,-0.12,0.47,-0.31,-4.87,-5.37,49.5
175.87565,-2.71,5.43,-6.74,-0.19,0.53,-0.4,-4.87,-5.37,49.5
175.899772,-2.58,6.19,-7.44,-0.08,0.47,-0.45,-4.87,-5.37,49.5
175.919785,-3.24,6.59,-7.45,-0.01,0.52,-0.53,-5.68,-5.0,48.37
175.943815,-3.82,6.23,-6.42,-0.12,0.95,-0.02,-5.68,-5.0,48.37
175.967624,-5.3,6.85,-7.61,-0.25,0.82,1.31,-6.75,-5.0,49.87
175.987812,-2.23,7.04,-6.96,-0.19,0.97,0.97,-6.75,-5.0,49.87
176.01181,-1.88,7.57,-7.06,-0.33,1.03,2.1,-6.75,-5.0,49.87
176.031788,-4.25,6.28,-7.94,-0.54,0.9,1.62,-9.06,-5.37,47.06
176.056537,-1.42,6.53,-7.47,-0.57,0.64,-1.02,-9.06,-5.37,47.06
176.079802,-0.99,8.49,-7.94,-0.25,-0.06,-1.13,-11.68,-5.0,47.37
176.099773,-1.3,8.89,-8.43,-0.07,0.0,-1.03,-11.68,-5.0,47.37
176.123813,-2.91,5.18,-6.18,-0.01,-0.7,-1.0,-11.68,-6.5,47.37
176.147778,-2.75,4.84,-5.77,-0.09,-0.56,-0.7,-11.68,-6.5,47.37
176.167769,-2.2,5.81,-6.81,-0.42,-0.17,-0.55,-11.68,-6.5,47.37
176.191794,-1.79,5.61,-7.1,-0.1,-0.66,0.04,-10.18,-7.56,46.25
176.211812,-2.87,4.82,-6.8,-0.44,-0.46,0.18,-10.18,-7.56,46.25
176.235842,-2.75,4.75,-7.01,-0.59,-0.38,0.0,-8.68,-9.06,48.56
176.259811,-2.52,4.95,-7.34,-0.71,-0.28,-0.07,-8.68,-9.06,48.56
176.279813,-2.33,6.35,-8.26,-0.78,-0.47,-0.3,-8.68,-9.06,48.56
176.304293,-2.5,7.09,-8.71,-0.74,-0.65,-0.46,-8.68,-8.37,46.25
176.327721,-3.17,7.78,-9.01,-0.46,-0.64,-0.64,-8.68,-8.37,46.25
176.359704,-3.08,6.69,-7.98,0.0,-0.51,-0.62,-7.18,-10.56,47.37
176.38368,-2.57,4.88,-6.6,0.34,-0.43,-0.76,-7.18,-10.56,47.37
176.403662,-2.79,5.01,-5.32,0.16,-0.44,-0.74,-7.18,-10.56,47.37
176.427696,-2.85,4.17,-5.99,-0.19,-0.66,-0.83,-6.06,-11.75,47.87
176.447664,-3.02,5.11,-7.19,-0.38,-0.44,-1.15,-6.06,-11.75,47.87
176.471701,-4.46,5.78,-7.8,-0.53,-0.24,-1.16,-4.56,-11.37,47.06
176.496331,-3.35,6.16,-8.07,-0.37,-0.02,-0.83,-4.56,-11.37,47.06
176.515679,-6.84,4.72,-6.92,0.13,-0.32,-0.57,-4.56,-11.37,47.06
176.539644,-4.8,6.0,-6.18,0.12,0.09,-0.1,-3.06,-12.87,47.06
176.563446,-5.29,6.46,-6.41,0.07,-0.56,-0.6,-2.25,-12.5,46.56
176.583497,-4.84,6.24,-6.05,0.12,-0.72,-0.64,-2.25,-12.06,47.06
176.607201,-5.51,5.58,-5.59,-0.01,-0.63,-0.67,-2.25,-12.06,47.06
176.631594,-5.72,6.66,-5.99,-0.11,-0.7,-0.78,0.25,-12.06,47.06
176.651619,-4.9,5.78,-5.73,-0.16,-0.76,-0.74,0.25,-12.06,47.06
176.675697,-6.19,5.7,-5.59,-0.13,-0.65,-0.59,0.25,-12.06,47.06
176.695702,-5.5,5.78,-5.22,-0.12,-0.82,-0.68,1.37,-11.75,46.56
176.719788,-5.95,5.56,-5.12,-0.26,-1.0,-0.69,1.37,-11.75,46.56
176.743818,-5.93,5.27,-4.82,-0.32,-1.09,-0.66,4.37,-12.87,45.87
176.763809,-6.12,5.67,-5.04,-0.32,-1.1,-0.67,4.37,-12.87,45.87
176.7879,-6.66,5.85,-4.99,-0.23,-1.05,-0.62,4.37,-12.87,45.87
176.807891,-6.82,5.25,-4.69,-0.22,-0.98,-0.61,6.37,-12.87,47.06
176.831957,-7.3,5.57,-5.32,-0.19,-0.69,-0.51,6.37,-12.87,47.06
176.855931,-6.87,5.73,-4.95,-0.2,-0.62,-0.7,9.68,-13.25,46.25
176.875915,-6.74,5.91,-5.15,-0.09,-0.88,-0.87,9.68,-13.25,46.25
176.899919,-7.49,5.77,-5.25,-0.14,-0.82,-0.89,9.68,-13.25,46.25
176.923928,-6.81,4.03,-4.13,0.19,-1.02,-1.07,11.18,-13.56,45.37
176.943929,-7.27,4.37,-4.07,0.28,-0.47,-0.63,11.18,-13.56,45.37
176.967921,-7.28,4.23,-3.52,0.41,-0.01,-0.13,13.06,-12.5,46.25
176.987927,-7.12,4.55,-4.38,0.36,0.12,-0.03,13.06,-12.5,46.25
177.01194,-7.03,5.04,-4.76,0.4,0.08,-0.02,13.06,-12.5,46.25
177.035949,-6.99,4.55,-4.49,0.44,0.01,-0.1,13.75,-13.25,45.25
177.056612,-7.54,4.12,-3.48,0.45,-0.04,-0.1,13.75,-13.25,45.25
177.080036,-6.7,4.26,-4.71,0.19,-0.03,-0.27,14.18,-11.37,45.0
177.103925,-7.53,4.44,-4.83,0.74,0.61,1.1,14.56,-11.25,45.75
177.123927,-6.57,4.58,-3.65,0.78,0.89,0.87,12.68,-10.87,47.25
177.147926,-6.01,5.07,-5.14,0.57,1.03,0.78,12.68,-10.87,47.25
177.16793,-5.26,5.61,-6.29,0.45,1.11,1.17,12.68,-10.87,47.25
177.191792,-5.64,5.24,-7.01,0.36,1.07,1.43,11.18,-10.18,47.25
177.21593,-5.46,3.96,-6.49,0.54,0.83,1.29,11.18,-10.18,47.25
177.235994,-5.21,3.47,-6.36,0.82,0.7,1.22,8.18,-10.56,47.75
177.259986,-4.46,3.74,-6.79,1.05,0.89,1.44,8.18,-10.56,47.75
177.29197,-4.71,4.41,-6.7,1.06,0.92,1.79,8.18,-10.56,47.75
177.315993,-3.96,4.45,-8.19,0.73,0.83,1.46,5.18,-9.5,49.68
177.339979,-3.07,4.2,-8.5,0.58,0.7,1.46,5.18,-9.5,49.68
177.359915,-3.4,3.87,-8.49,0.54,0.49,1.53,3.0,-6.5,49.68
177.384078,-3.41,3.76,-7.69,0.63,0.05,1.36,3.0,-6.5,49.68
177.403979,-4.34,4.26,-7.39,0.61,0.6,1.06,3.0,-6.5,49.68
177.428096,-3.35,2.98,-6.9,0.51,1.47,0.3,0.68,-7.18,49.25
177.451981,-0.7,0.85,-4.75,1.06,1.95,0.35,0.68,-7.18,49.25
177.471823,-20.28,-0.02,5.88,0.97,2.29,0.9,-1.06,-4.56,51.25
177.49583,6.23,-4.19,-15.01,-2.29,-2.27,-1.39,-1.06,-4.56,51.25
177.519845,-2.92,-0.54,-8.72,0.7,0.15,1.52,-1.06,-4.56,51.25
177.539692,-2.4,-0.7,-1.92,-0.27,0.6,1.84,-3.68,-4.0,50.5
177.563818,-1.8,1.72,-4.97,1.4,0.28,2.36,-4.5,-3.18,50.5
177.583857,0.79,5.67,-7.96,1.74,0.1,2.49,-5.56,-1.0,50.87
177.60784,0.8,11.54,-13.37,1.09,0.82,2.67,-5.56,-1.0,50.87
177.631822,-1.62,11.39,-12.96,-0.72,2.62,3.29,-6.0,5.0,51.18
177.651819,-1.4,10.16,-12.38,-1.02,2.51,2.69,-6.0,5.0,51.18
177.675858,-1.93,8.61,-10.64,-0.59,2.04,1.93,-6.0,5.0,51.18
177.699811,-2.16,3.51,-8.13,0.92,0.48,0.64,-11.18,7.56,49.0
177.719817,0.59,4.42,-8.27,2.45,-0.62,-0.32,-11.18,7.56,49.0
177.74379,-1.53,1.15,-8.52,2.08,-0.39,0.04,-13.18,11.25,47.87
177.763841,-1.35,-1.27,-7.53,1.24,0.12,0.64,-13.18,11.25,47.87
177.787868,0.4,1.21,-7.64,1.44,0.0,1.1,-13.18,11.25,47.87
177.811858,1.36,4.01,-9.0,1.69,0.08,0.9,-13.75,16.68,46.25
177.831814,0.73,3.47,-13.12,1.83,-0.09,0.55,-13.75,16.68,46.25
177.855847,1.68,6.22,-16.14,2.1,-0.68,0.23,-15.0,21.5,43.25
177.879823,2.29,3.81,-14.06,1.9,-1.08,0.17,-15.0,21.5,43.25
177.899826,2.5,3.66,-10.72,2.0,-1.16,0.33,-15.0,21.5,43.25
177.923758,2.41,2.46,-9.69,1.92,-1.04,0.37,-16.06,25.87,41.75
177.943859,2.7,1.67,-10.83,1.54,-0.8,0.5,-16.06,25.87,41.75
177.967857,3.51,2.13,-11.42,1.34,-0.76,0.52,-16.06,30.0,40.37
177.991856,5.16,3.11,-9.35,1.47,-1.05,0.34,-16.06,30.0,40.37
178.035973,4.21,2.0,-8.27,1.03,-0.45,0.46,-16.06,30.0,40.37
178.05985,4.19,1.04,-9.36,0.7,0.22,0.1,-13.56,32.06,38.87
178.07983,3.32,0.27,-12.17,0.93,0.16,-0.1,-13.56,32.06,38.87
178.103947,1.83,0.55,-13.3,1.03,-0.18,-0.2,-14.25,33.87,37.68
178.123851,1.24,0.07,-10.44,-0.29,-0.02,-0.26,-15.06,35.25,36.5
178.147913,-1.19,0.95,-14.09,-2.04,2.27,0.65,-15.06,35.25,36.5
178.171964,1.02,0.28,-4.68,-1.26,-0.05,0.47,-15.06,35.25,36.5
178.192041,-1.29,0.62,-11.66,-0.52,-0.02,0.53,-16.06,34.5,36.87
178.215904,-0.31,0.67,-10.11,0.11,0.24,0.16,-16.06,34.5,36.87
178.235816,0.15,0.68,-10.01,0.07,0.0,0.04,-15.75,33.75,37.18
178.259832,-0.64,0.23,-9.67,0.13,-0.1,0.2,-15.75,33.75,37.18
178.28381,-0.62,-0.32,-9.75,0.28,0.27,0.22,-15.75,33.75,37.18
178.303884,0.01,0.57,-12.76,1.21,0.71,-0.2,-15.68,33.37,37.68
178.327945,1.14,0.19,-12.26,0.47,0.25,-0.3,-15.68,33.37,37.68
178.351964,0.09,0.12,-9.67,0.05,0.02,-0.01,-16.37,35.68,36.06
178.37195,0.01,0.17,-9.94,-0.02,-0.02,0.0,-16.37,35.68,36.06
178.395904,0.0,0.13,-9.82,0.0,0.0,0.0,-16.37,35.68,36.06
178.415914,-0.03,0.13,-9.8,0.0,0.0,0.0,-17.18,34.75,35.68
178.439953,0.06,0.16,-9.67,0.0,0.0,0.0,-17.18,34.75,35.68
178.463929,0.09,0.18,-9.84,0.0,0.0,0.0,-16.75,34.75,34.87
178.483804,0.03,0.19,-9.69,0.0,0.0,0.0,-16.75,34.75,34.87
178.50784,-0.02,0.18,-9.77,0.0,0.0,0.0,-16.75,34.75,34.87
178.531815,0.0,0.15,-9.69,0.0,0.0,0.0,-17.18,35.18,36.06
178.551868,0.02,0.16,-9.77,0.0,0.0,0.0,-17.18,35.18,36.06
178.575852,0.08,0.15,-9.76,0.0,0.0,0.0,-16.75,35.18,34.5
178.595802,0.09,0.16,-9.77,0.0,0.0,0.0,-16.75,35.18,34.5
178.619833,0.01,0.15,-9.75,0.0,0.0,0.0,-16.75,35.18,34.5
178.64387,0.08,0.17,-9.78,0.0,0.0,0.0,-16.75,35.87,36.06
178.663821,0.0,0.17,-9.86,0.0,0.0,0.0,-16.75,35.87,36.06
178.687802,0.0,0.17,-9.73,0.0,0.0,0.0,-16.75,35.18,35.68
178.711821,-0.01,0.13,-9.84,0.0,0.0,0.0,-16.75,35.18,35.68
178.731744,0.07,0.14,-9.76,0.0,0.0,0.0,-16.75,35.56,35.68
178.755822,0.12,0.13,-9.86,0.0,0.0,0.0,-16.75,35.56,35.68
178.775858,0.07,0.14,-9.77,0.0,0.0,0.0,-16.75,35.56,35.68
178.799823,-0.02,0.2,-9.83,0.0,0.0,0.0,-17.5,34.37,35.37
178.823855,-0.01,0.19,-9.68,0.0,0.0,0.0,-17.5,34.37,35.37
178.843856,0.02,0.18,-9.81,0.0,0.0,0.0,-17.18,35.18,36.06
178.867816,0.12,0.17,-9.75,0.0,0.0,0.0,-17.18,35.18,36.06
178.891948,0.11,0.15,-9.88,0.0,0.0,0.0,-17.18,35.18,36.06
178.911821,0.06,0.11,-9.8,0.0,0.0,0.0,-16.37,35.87,36.06
178.935812,0.06,0.1,-9.81,0.0,0.0,0.0,-16.37,35.87,36.06
178.955845,0.0,0.13,-9.76,0.0,0.0,0.0,-16.75,35.18,36.06
178.979812,0.0,0.19,-9.78,0.0,0.0,0.0,-16.75,35.18,36.06
179.003891,0.0,0.22,-9.77,0.0,0.0,0.0,-16.75,35.18,36.06
179.02385,0.01,0.22,-9.77,0.0,0.0,0.0,-17.18,35.18,36.06
179.047903,0.03,0.13,-9.78,0.0,0.0,0.0,-17.18,35.18,36.06
179.071956,0.03,0.1,-9.77,0.0,0.0,0.0,-16.37,35.56,35.37
179.091047,0.0,0.11,-9.78,0.0,0.0,0.0,-16.37,35.56,35.37
179.115777,0.01,0.17,-9.77,0.0,0.0,0.0,-16.37,35.56,35.37
179.135282,0.04,0.19,-9.8,0.0,0.0,0.0,-15.68,34.75,35.68
179.163505,0.09,0.22,-9.77,0.0,0.0,0.0,-15.68,34.75,35.68
179.186978,0.0,0.14,-9.75,0.0,0.0,0.0,-17.5,35.18,35.68
179.203,0.07,0.16,-9.81,0.0,0.0,0.0,-17.5,35.18,35.68
179.233655,0.05,0.21,-9.74,0.0,0.0,0.0,-17.18,36.25,35.68
179.250955,-0.02,0.17,-9.83,0.0,0.0,0.0,-17.18,36.25,35.68
179.270983,-0.03,0.16,-9.73,0.0,0.0,0.0,-17.18,36.25,35.68
179.295033,0.06,0.11,-9.82,0.0,0.0,0.0,-16.37,34.75,36.5
179.315145,0.12,0.11,-9.82,0.0,0.0,0.0,-16.37,34.75,36.5
179.339142,0.09,0.16,-9.82,0.0,0.0,0.0,-16.0,35.18,35.37
179.367614,0.01,0.2,-9.77,0.0,0.0,0.0,-16.0,35.18,35.37
179.383721,-0.01,0.18,-9.74,0.0,0.0,0.0,-16.0,35.18,35.37
179.407918,0.0,0.16,-9.74,0.0,0.0,0.0,-17.18,34.75,35.68
179.431713,0.08,0.15,-9.81,0.0,0.0,0.0,-17.18,34.75,35.68
179.451928,0.09,0.15,-9.83,0.0,0.0,0.0,-17.5,35.87,35.37
179.476027,0.05,0.16,-9.77,0.0,0.0,0.0,-17.5,35.87,35.37
179.495966,-0.04,0.17,-9.77,0.0,0.0,0.0,-17.5,35.87,35.37
179.519857,0.0,0.16,-9.71,0.0,0.0,0.0,-17.5,34.75,36.5
179.54386,0.04,0.15,-9.82,0.0,0.0,0.0,-17.5,34.75,36.5
179.563788,0.08,0.17,-9.76,0.0,0.0,0.0,-16.37,35.18,36.5
179.587863,0.03,0.2,-9.84,0.0,0.0,0.0,-16.37,35.18,36.5
179.611821,0.01,0.17,-9.76,0.0,0.0,0.0,-16.37,35.18,36.5
179.63181,0.0,0.14,-9.77,0.0,0.0,0.0,-17.18,34.06,34.87
179.655865,0.01,0.15,-9.75,0.0,0.0,0.0,-17.18,34.06,34.87
179.675855,0.01,0.17,-9.8,0.0,0.0,0.0,-16.75,35.56,34.5
179.699862,0.08,0.2,-9.77,0.0,0.0,0.0,-16.75,35.56,34.5
179.723825,0.0,0.12,-9.75,0.0,0.0,0.0,-16.37,35.56,35.68
