t,raw_acceleration_x,raw_acceleration_y,raw_acceleration_z,rotation_speed_x,rotation_speed_y,rotation_speed_z,magnetic_field_x,magnetic_field_y,magnetic_field_z
193.547684,0.16,0.19,-9.78,0.0,0.0,0.0,-4.87,26.87,39.0
193.57163,0.12,0.17,-9.78,0.0,0.0,0.0,-6.0,26.5,38.18
193.595762,0.12,0.18,-9.75,0.0,0.0,0.0,-6.0,26.5,38.18
193.615592,0.09,0.16,-9.81,0.0,0.0,0.0,-4.87,26.06,39.0
193.639506,0.12,0.14,-9.77,0.0,0.01,0.0,-4.87,26.06,39.0
193.659779,0.14,0.18,-9.78,0.01,0.01,0.0,-5.25,26.87,39.0
193.683771,0.15,0.21,-9.77,0.0,0.0,0.0,-5.25,26.87,39.0
193.707735,0.14,0.24,-9.77,0.0,0.0,0.0,-5.25,26.87,39.0
193.727819,0.13,0.24,-9.73,0.0,0.0,0.0,-6.0,25.68,38.18
193.751767,0.12,0.2,-9.8,0.0,0.0,0.0,-6.0,25.68,38.18
193.775782,0.11,0.22,-9.75,0.01,0.02,0.0,-4.87,26.87,38.68
193.795765,-0.06,0.2,-9.81,0.02,0.0,0.02,-4.87,26.87,38.68
193.819777,0.13,0.31,-9.85,0.03,0.02,0.03,-4.87,26.87,38.68
193.843786,-0.22,0.54,-9.81,-0.06,0.0,0.21,-5.25,26.56,39.37
193.875727,1.39,0.21,-9.94,-0.03,0.01,-0.9,-5.25,26.56,39.37
193.89977,-0.55,0.96,-9.78,-0.04,0.0,-0.9,-5.25,27.68,39.0
193.919657,-0.12,0.67,-9.61,0.0,0.0,-0.78,-5.25,27.68,39.0
193.943861,0.13,0.76,-9.8,-0.01,-0.01,-0.45,-5.25,27.68,39.0
193.963865,1.5,4.09,-9.72,0.08,-0.04,0.27,-6.75,24.68,39.75
193.987839,0.49,7.94,-9.89,0.12,-0.02,0.56,-6.75,24.68,39.75
194.011877,1.55,10.26,-9.43,-0.01,-0.02,-0.25,-7.5,25.06,38.68
194.031885,1.06,7.04,-10.58,-0.03,-0.01,-0.97,-7.5,25.06,38.68
194.055668,2.0,6.43,-10.4,0.04,-0.01,-1.56,-7.5,25.06,38.68
194.079879,7.79,0.83,-10.02,-0.08,0.03,-2.61,-8.68,24.0,39.37
194.099903,7.54,-1.79,-9.86,-0.03,0.06,-2.47,-8.68,24.0,39.37
194.123978,6.66,-5.76,-10.07,-0.1,-0.03,-2.31,-11.68,21.0,38.18
194.147928,5.52,-8.25,-9.93,-0.06,-0.01,-1.78,-11.68,21.0,38.18
194.183402,4.74,-7.27,-9.77,-0.01,-0.04,-1.54,-13.25,19.5,38.68
194.203635,3.86,-7.34,-9.64,0.0,-0.04,-1.28,-13.25,19.5,38.68
194.223432,2.33,-6.83,-9.71,0.0,-0.04,-0.93,-13.25,19.5,38.68
194.247595,1.35,-7.7,-9.77,-0.07,-0.08,-0.81,-15.56,17.56,39.0
194.267593,-0.04,-8.0,-10.01,-0.06,-0.1,-0.59,-15.56,17.56,39.0
194.291657,-0.83,-7.56,-10.32,-0.01,0.03,-0.27,-16.68,17.87,37.0
194.315662,-2.36,-8.92,-9.64,-0.02,0.02,0.08,-16.68,17.87,37.0
194.335672,-2.87,-8.66,-9.77,-0.05,0.0,0.47,-16.68,17.87,37.0
194.359663,-3.88,-7.75,-9.77,-0.04,-0.02,0.76,-17.37,16.75,37.5
194.383752,-4.18,-5.83,-9.13,0.03,0.01,1.16,-17.37,16.75,37.5
194.403763,-5.01,-4.67,-9.36,-0.04,0.0,1.5,-17.5,17.18,36.18
194.427766,-5.48,-2.25,-9.86,-0.01,0.02,1.64,-17.5,17.18,36.18
194.447759,-5.89,1.88,-9.51,0.02,0.0,2.16,-17.5,17.18,36.18
194.471764,-7.11,2.92,-9.9,0.01,0.01,2.26,-17.5,18.37,35.75
194.495764,-7.41,3.14,-9.82,0.08,0.0,2.01,-17.5,18.37,35.75
194.515757,-2.35,2.93,-10.03,0.06,-0.08,0.22,-13.75,22.18,37.75
194.539748,-0.59,4.13,-9.69,0.1,-0.01,-0.01,-13.75,22.18,37.75
194.56402,2.86,3.16,-9.91,-0.01,0.04,0.21,-12.68,22.18,37.75
194.583749,5.22,4.5,-9.5,0.04,-0.01,0.55,-12.68,22.18,37.75
194.607769,8.68,6.09,-9.88,-0.11,0.0,0.57,-12.68,22.18,37.75
194.627758,7.77,6.21,-10.18,-0.14,0.03,0.77,-13.06,22.18,37.75
194.651758,8.09,4.4,-10.09,0.03,0.0,0.07,-13.06,22.18,37.75
194.675781,7.58,0.8,-9.75,0.1,-0.02,-0.46,-10.75,22.37,38.18
194.695767,9.56,1.23,-10.06,0.0,-0.03,-0.68,-10.75,22.37,38.18
194.719766,9.14,-0.6,-10.09,-0.06,-0.02,-0.37,-10.75,22.37,38.18
194.743755,7.39,0.74,-9.89,0.0,-0.01,-0.22,-12.0,21.37,41.0
194.763693,6.12,-0.14,-9.86,-0.03,-0.01,-0.15,-12.0,21.37,41.0
194.787762,4.76,0.3,-9.89,-0.03,0.06,-0.05,-11.87,21.37,37.75
194.807681,3.79,3.18,-10.01,-0.03,0.03,-0.24,-11.87,21.37,37.75
194.83168,3.69,3.19,-10.16,0.01,0.03,-0.69,-11.87,21.37,37.75
194.855843,4.04,1.72,-10.02,0.0,-0.02,-0.92,-12.18,22.18,37.75
194.88792,2.82,0.51,-9.86,0.03,0.06,-0.7,-12.18,22.18,37.75
194.911852,1.12,1.29,-9.83,0.02,0.0,-0.77,-14.75,21.75,37.75
194.931863,0.35,2.06,-9.96,0.0,-0.04,-0.89,-14.75,21.75,37.75
194.95583,-0.32,3.27,-9.84,0.1,0.0,-0.95,-14.75,21.75,37.75
194.979863,-1.51,1.6,-9.94,0.12,-0.01,-0.9,-17.37,20.25,37.75
194.999872,-6.97,4.83,-9.49,0.03,0.02,-1.16,-21.56,20.68,33.5
195.023824,-7.35,5.36,-9.75,0.0,0.0,-1.49,-28.56,18.37,26.75
195.047952,-7.32,2.97,-9.52,-0.04,0.01,-1.69,-28.56,18.37,26.75
195.067771,-6.82,0.6,-9.44,-0.35,0.27,-1.63,-33.87,20.5,8.06
195.091872,-5.81,-3.73,-10.07,-0.38,0.19,-1.66,-33.87,20.5,8.06
195.11182,-5.76,-5.93,-9.42,-0.03,0.0,-1.52,-33.87,20.5,8.06
195.135875,-5.09,-6.47,-10.26,0.35,-0.37,-1.52,-23.0,27.06,-9.25
195.159872,-4.18,-4.51,-9.91,0.44,-0.16,-1.27,-23.0,27.06,-9.25
195.179821,-3.16,-3.54,-10.09,0.11,0.02,-0.72,-7.06,29.87,-8.87
195.203815,-1.06,-4.34,-10.02,0.06,0.04,-0.55,-7.06,29.87,-8.87
195.227861,0.0,-5.53,-9.68,0.0,-0.01,-0.2,-7.06,29.87,-8.87
195.247962,1.49,-6.3,-10.16,-0.1,-0.08,0.21,-11.0,30.75,-10.06
195.271828,3.04,-5.82,-9.63,-0.08,-0.08,0.8,-11.0,30.75,-10.06
195.291836,4.08,-3.49,-9.94,-0.05,-0.01,1.23,-22.87,21.75,3.5
195.31589,4.84,-1.77,-10.25,0.0,-0.01,1.37,-22.87,21.75,3.5
195.339815,4.84,-0.69,-9.35,0.06,0.03,1.56,-22.87,21.75,3.5
195.35968,4.73,0.2,-8.91,0.09,0.11,1.7,-25.5,19.56,19.0
195.383708,4.18,2.0,-9.77,0.11,0.08,1.75,-25.5,19.56,19.0
195.407673,4.01,3.89,-10.0,0.03,0.01,1.63,-22.18,21.18,25.75
195.427691,2.7,3.19,-10.02,0.04,0.0,1.18,-22.18,21.18,25.75
195.451704,0.9,0.92,-9.36,0.0,0.0,0.19,-22.18,21.18,25.75
195.471653,0.45,0.74,-10.11,-0.18,-0.05,-0.01,-20.25,23.68,28.18
195.495705,-0.43,-0.26,-9.86,-0.04,-0.03,-0.01,-20.25,23.68,28.18
195.519673,0.11,0.37,-9.77,-0.03,-0.02,0.0,-19.87,23.37,27.0
195.539751,0.13,0.31,-9.78,-0.04,-0.03,0.0,-19.87,23.37,27.0
195.563755,0.22,0.36,-9.72,-0.03,-0.02,0.01,-18.75,23.37,27.0
195.587811,0.08,0.37,-9.86,-0.07,-0.03,-0.02,-18.75,23.37,27.0
195.607814,0.02,0.34,-9.75,0.0,0.0,0.01,-18.75,23.37,27.0
195.631857,0.01,0.32,-9.77,0.02,0.04,0.04,-19.87,23.0,27.18
195.651842,0.16,0.51,-9.76,0.03,0.07,0.03,-19.87,23.0,27.18
195.675762,0.18,-0.47,-9.85,-0.03,-0.04,0.29,-19.75,23.0,26.87
195.711866,0.04,0.38,-9.77,0.01,0.02,0.23,-19.75,23.0,26.87
195.731853,0.13,0.28,-9.76,0.0,0.0,0.22,-19.75,23.0,26.87
195.755743,0.13,0.36,-9.77,-0.02,-0.01,0.15,-19.75,23.0,27.18
195.775861,0.04,0.61,-9.5,0.05,-0.05,0.22,-19.75,23.0,27.18
195.799844,0.08,0.0,-9.71,0.0,0.0,0.11,-19.06,23.68,28.06
195.823709,0.04,0.21,-9.78,0.0,0.0,0.09,-19.06,23.68,28.06
195.843852,0.15,0.4,-9.84,0.0,0.0,0.03,-19.06,23.68,28.06
195.867862,-0.07,0.27,-9.83,0.02,-0.01,0.05,-19.06,24.06,26.37
195.891814,0.07,0.33,-9.77,0.0,0.0,-0.01,-19.06,24.06,26.37
195.911853,0.09,0.35,-9.81,0.0,0.0,-0.03,-18.68,24.5,28.06
195.935857,0.11,0.31,-9.8,0.01,0.0,0.0,-18.68,24.5,28.06
195.955809,0.1,0.3,-9.77,0.0,0.0,0.0,-18.68,24.06,28.87
195.979866,0.09,0.36,-9.77,0.02,0.0,0.01,-18.68,24.06,28.87
196.003816,0.13,0.34,-9.78,0.02,0.0,0.05,-18.68,24.06,28.87
196.023807,0.67,0.19,-9.77,-0.13,-0.05,0.48,-18.68,24.06,27.18
196.047854,-0.61,0.35,-9.64,-0.02,0.0,0.19,-18.68,24.06,27.18
196.071892,0.12,0.3,-9.83,0.0,0.0,0.0,-17.87,24.06,27.18
196.091831,0.1,0.33,-9.86,0.05,0.02,0.01,-17.87,24.06,27.18
196.115861,0.01,0.16,-9.77,0.06,0.02,0.06,-17.87,24.06,27.18
196.135872,0.13,0.36,-9.8,0.02,0.01,0.03,-17.56,25.56,26.37
196.159872,0.07,0.25,-9.76,0.01,0.01,0.01,-17.56,25.56,26.37
196.183886,0.12,0.27,-9.77,0.03,0.03,0.02,-17.87,24.87,26.87
196.203824,0.07,0.31,-9.82,0.0,0.0,0.03,-17.87,24.87,26.87
196.227823,0.09,0.3,-9.76,0.0,0.0,0.04,-17.87,24.87,26.87
196.251858,0.11,0.34,-9.8,0.0,0.0,0.03,-17.56,25.18,28.06
196.271832,0.17,0.27,-9.75,0.0,0.0,0.06,-17.56,25.18,28.06
196.295824,0.07,0.25,-9.77,-0.01,-0.01,0.05,-18.25,24.87,26.87
196.315956,0.08,0.23,-9.8,0.0,0.0,0.03,-18.25,24.87,26.87
196.339902,0.12,0.26,-9.77,0.0,0.0,0.03,-18.25,24.87,26.87
196.363947,0.02,0.28,-9.8,0.0,0.0,0.04,-17.87,24.5,27.18
196.38395,0.12,0.35,-9.83,0.0,0.0,0.02,-17.87,24.5,27.18
196.407903,0.16,0.32,-9.77,0.0,0.0,0.01,-18.68,25.18,26.37
196.431946,0.12,0.26,-9.8,0.0,0.0,0.02,-18.68,25.18,26.37
196.451944,0.1,0.24,-9.77,0.0,0.0,0.02,-18.68,25.18,26.37
196.475947,0.11,0.32,-9.77,0.0,0.0,0.01,-17.87,24.87,26.06
196.495865,0.12,0.35,-9.78,0.01,0.01,0.0,-17.87,25.56,27.18
196.519825,0.07,0.33,-9.76,0.02,0.02,0.04,-18.25,24.5,26.87
196.543871,0.11,0.18,-9.77,0.0,0.01,0.05,-18.25,24.5,26.87
196.563797,0.19,0.33,-9.78,0.0,0.0,0.05,-17.56,25.56,26.37
196.587819,0.16,0.3,-9.8,0.0,0.0,0.06,-17.56,25.56,26.37
196.61187,0.08,0.36,-9.78,0.0,0.0,0.01,-17.87,25.18,27.68
196.64379,0.09,0.31,-9.78,0.0,0.0,0.01,-17.87,25.18,27.68
196.667869,0.09,0.28,-9.78,0.0,0.0,0.02,-17.87,25.18,27.68
196.687918,0.11,0.26,-9.77,0.0,0.0,0.01,-17.87,25.18,27.18
196.711872,0.13,0.21,-9.76,0.0,0.0,0.0,-17.87,25.18,27.18
196.735945,0.11,0.24,-9.72,-0.02,-0.01,0.0,-17.56,25.18,26.87
196.755829,-0.04,-0.2,-9.84,0.01,0.01,0.0,-17.56,25.18,26.87
196.779966,-1.18,-1.33,-10.03,0.05,0.02,0.04,-17.56,25.18,26.87
196.79986,-0.21,0.02,-10.24,0.22,0.02,0.09,-16.75,25.18,27.18
196.823817,-0.94,-5.74,-12.08,-0.35,-0.39,0.67,-16.75,25.18,27.18
196.847862,-1.02,-3.9,-10.77,-0.18,-0.07,0.54,-16.75,26.0,28.06
196.867867,-0.62,1.36,-11.74,-0.39,0.04,0.8,-16.75,26.0,28.06
196.891828,1.31,2.1,-5.43,0.26,0.05,0.64,-16.75,26.0,28.06
196.915867,-2.37,1.94,-6.59,0.47,1.01,0.67,-16.06,26.37,28.37
196.935791,-2.22,-16.3,-5.8,0.64,0.57,0.78,-16.06,26.37,28.37
196.959868,-0.12,0.02,-9.16,0.1,0.05,2.35,-11.56,27.87,30.75
196.979877,0.6,0.2,-10.55,0.09,0.0,2.39,-11.56,27.87,30.75
197.003843,-0.67,-0.8,-10.09,-0.28,-0.25,1.82,-8.0,29.68,33.75
197.027825,2.77,2.72,-10.23,-0.16,-0.15,1.54,-8.0,29.68,33.75
197.04787,2.52,1.7,-9.36,-0.07,-0.04,1.53,-8.0,29.68,33.75
197.071759,2.89,1.12,-9.67,-0.17,0.08,1.07,-4.56,29.75,35.75
197.095828,4.57,4.61,-11.26,-0.24,0.32,0.8,-4.56,29.75,35.75
197.115865,5.25,4.59,-8.47,-0.23,-0.23,1.57,-1.56,30.56,36.18
197.139821,6.39,4.93,-10.14,-0.15,-0.1,3.0,-1.56,30.56,36.18
197.159867,2.25,2.37,-10.42,-0.12,-0.05,4.8,-1.56,30.56,36.18
197.183869,2.2,2.02,-10.03,0.02,0.04,5.12,-0.06,31.06,37.5
197.207816,1.47,1.26,-9.68,0.03,-0.01,4.96,-0.06,31.06,37.5
197.227841,-0.87,0.3,-9.28,-0.01,-0.05,4.55,9.5,33.75,36.68
197.251875,-1.27,0.37,-9.86,-0.03,-0.02,3.77,9.5,33.75,36.68
197.27584,-0.7,0.79,-9.72,0.0,0.02,2.91,9.5,33.75,36.68
197.295868,0.26,-0.06,-10.14,0.08,0.07,2.12,19.68,34.0,36.68
197.319829,-0.09,-0.15,-9.75,-0.02,-0.01,1.47,19.68,34.0,36.68
197.339831,-0.91,0.14,-9.89,-0.04,-0.03,0.75,24.06,34.68,35.5
197.363862,-0.65,0.35,-9.38,-0.02,-0.02,0.02,24.06,34.68,35.5
197.387836,-0.42,0.21,-9.89,0.01,0.01,0.0,24.06,34.68,35.5
197.407823,0.31,-0.21,-9.75,0.02,0.02,0.0,24.87,34.06,36.06
197.431863,0.44,-0.23,-10.21,0.0,0.0,0.0,24.87,34.06,36.06
197.455928,0.05,0.03,-9.67,-0.01,-0.02,0.0,24.18,33.68,35.68
197.475977,-0.52,0.42,-9.61,-0.02,-0.01,0.0,24.18,33.68,35.68
197.49987,0.22,-0.15,-9.99,0.0,0.0,0.0,24.5,34.06,37.37
197.519834,-0.17,0.07,-9.67,-0.02,-0.02,0.0,24.5,34.06,37.37
197.543858,-0.55,0.37,-9.61,-0.01,-0.01,0.0,24.5,34.06,37.37
197.567776,-0.36,0.26,-9.52,0.0,0.0,0.0,24.87,34.06,37.68
197.5877,0.21,-0.01,-9.98,0.01,0.02,0.0,24.87,34.06,37.68
197.611826,0.41,-0.14,-9.92,0.0,0.0,0.0,24.87,34.87,36.56
197.635827,0.08,-0.02,-9.93,0.0,0.0,0.0,24.87,34.87,36.56
197.655829,-0.49,0.26,-9.61,-0.01,-0.01,0.0,24.87,34.87,36.56
197.67986,-0.53,0.28,-9.61,0.0,0.0,0.0,24.87,33.68,36.87
197.699875,-0.04,0.08,-9.77,0.01,0.01,0.0,24.87,33.68,36.87
197.723827,0.33,-0.06,-9.97,0.01,0.01,0.0,24.87,33.37,36.56
197.74787,0.36,-0.07,-9.91,0.0,0.0,0.0,24.87,33.37,36.56
197.767865,-0.04,0.12,-9.86,-0.01,-0.01,0.0,24.87,33.37,36.56
197.791826,-0.5,0.28,-9.58,-0.01,-0.01,0.0,24.87,34.06,36.06
197.815963,-0.46,0.22,-9.67,0.0,0.0,0.0,24.87,34.06,36.06
197.835928,0.07,-0.05,-9.82,0.02,0.01,0.0,24.5,33.68,36.56
197.859954,0.39,-0.12,-9.93,0.0,0.0,0.0,24.5,33.68,36.56
197.879956,0.22,0.02,-9.82,0.0,0.0,0.0,24.5,33.68,36.56
197.903917,-0.31,0.28,-9.66,-0.01,-0.01,0.0,24.5,33.68,35.68
197.927908,-0.45,0.34,-9.58,0.0,0.0,0.0,24.5,33.68,35.68
197.947925,-0.16,0.04,-9.75,0.01,0.01,0.0,25.68,34.06,37.68
197.971917,0.16,-0.13,-9.89,0.01,0.01,0.0,25.68,34.06,37.68
197.995847,0.28,-0.13,-9.9,0.0,0.0,0.0,25.68,34.06,37.68
198.015886,0.06,0.05,-9.76,-0.01,-0.01,0.0,25.68,33.37,36.06
198.039903,0.26,-0.2,-9.94,0.0,0.0,0.0,25.25,33.68,35.37
198.059877,0.18,-0.09,-9.86,0.0,0.0,0.0,24.87,34.06,35.68
198.083941,-0.25,0.21,-9.69,-0.01,-0.01,0.0,24.87,34.06,35.68
198.107829,-0.39,0.32,-9.65,-0.01,0.0,0.0,25.25,33.68,35.68
198.12788,-0.16,0.19,-9.72,0.0,0.0,0.0,25.25,33.68,35.68
198.151758,0.12,-0.01,-9.88,0.01,0.01,0.0,25.25,33.68,35.68
198.175828,0.27,-0.14,-9.92,0.0,0.0,0.0,25.25,33.68,36.87
198.195708,0.05,-0.02,-9.85,-0.01,0.0,0.0,25.25,33.68,36.87
198.219653,-0.34,0.23,-9.67,-0.01,-0.01,0.0,25.25,34.5,36.87
198.239774,-0.3,0.23,-9.67,0.0,0.0,0.0,25.25,34.5,36.87
198.263732,-0.06,0.11,-9.76,0.01,0.0,0.0,25.25,34.5,36.87
198.287668,0.28,-0.09,-9.94,0.01,0.01,0.0,24.5,34.5,35.68
198.307671,0.22,-0.09,-9.89,0.0,0.0,0.0,24.5,34.5,35.68
198.331694,-0.18,0.13,-9.72,-0.01,-0.01,0.0,25.68,33.68,36.06
198.355668,-0.38,0.26,-9.68,0.0,0.0,0.0,25.68,33.68,36.06
198.375605,-0.23,0.14,-9.69,0.0,0.0,0.0,25.68,33.68,36.06
198.399723,0.03,0.01,-9.82,0.01,0.01,0.0,24.87,33.68,35.37
198.419767,0.26,-0.09,-9.9,0.0,0.0,0.0,24.87,33.68,35.37
198.443774,0.0,0.08,-9.8,-0.01,0.0,0.0,25.25,33.68,36.18
198.467751,-0.24,0.23,-9.68,-0.01,-0.01,0.0,25.25,33.68,36.18
198.487769,-0.31,0.22,-9.68,0.0,0.0,0.0,25.25,33.68,36.18
198.511808,-0.12,0.1,-9.74,0.01,0.01,0.0,24.18,33.37,35.68
198.53583,0.18,-0.09,-9.92,0.0,0.01,0.0,24.18,33.37,35.68
198.555737,0.18,-0.08,-9.91,0.0,0.0,0.0,25.25,34.06,36.06
198.579782,0.09,-0.03,-9.85,0.0,0.01,0.0,24.5,33.37,35.68
198.599763,0.21,-0.11,-9.9,0.0,0.0,0.0,24.87,34.06,36.06
198.623769,0.0,0.0,-9.83,0.0,0.0,0.0,24.87,34.06,36.06
198.647766,-0.21,0.15,-9.71,0.0,-0.01,0.0,24.87,34.06,36.06
198.667994,-0.31,0.25,-9.69,0.0,0.0,0.0,24.87,34.06,35.68
198.691921,-0.12,0.14,-9.72,0.0,0.01,0.0,24.87,34.06,35.68
198.71591,0.16,-0.02,-9.86,0.01,0.0,0.0,25.25,33.68,36.56
198.735902,0.18,-0.07,-9.91,0.0,0.0,0.0,25.25,33.68,36.56
198.759913,-0.09,0.06,-9.77,-0.01,0.0,0.0,25.25,33.68,36.56
198.783906,-0.28,0.19,-9.65,0.0,0.0,0.0,25.68,34.06,35.68
198.803921,-0.25,0.19,-9.74,0.0,0.0,0.0,25.68,34.06,35.68
198.827902,0.04,0.01,-9.81,0.0,0.01,0.0,24.5,33.37,36.06
198.847937,0.22,-0.03,-9.92,0.0,0.0,0.0,24.5,33.37,36.06
198.871906,0.04,0.0,-9.81,0.0,0.0,0.0,24.5,33.37,36.06
198.895911,-0.17,0.12,-9.75,-0.01,0.0,0.0,24.87,33.68,36.87
198.915903,-0.31,0.17,-9.67,0.0,0.0,0.0,24.87,33.68,36.87
198.939919,-0.19,0.12,-9.76,0.0,0.0,0.0,25.25,34.06,36.56
198.963915,0.13,-0.01,-9.86,0.0,0.0,0.0,25.25,34.06,36.56
198.983837,0.17,-0.04,-9.89,0.0,0.0,0.0,25.25,34.06,36.56
199.007939,-0.01,0.08,-9.77,0.0,0.0,0.0,25.25,34.06,36.06
199.027929,-0.27,0.2,-9.67,0.0,0.0,0.0,25.25,34.06,36.06
199.052073,-0.26,0.16,-9.67,0.0,0.0,0.0,25.25,34.06,35.37
199.075827,-0.02,0.0,-9.82,0.01,0.0,0.0,25.25,34.06,35.37
199.095843,0.13,-0.07,-9.86,0.0,0.0,0.0,25.25,34.06,35.37
199.119823,-0.16,0.14,-9.73,0.0,0.0,0.0,24.5,34.06,36.56
199.143905,0.05,-0.02,-9.83,0.0,0.0,0.0,24.5,34.06,36.56
199.163762,0.15,-0.05,-9.89,0.0,0.0,0.0,24.5,33.68,35.37
199.187561,-0.02,0.03,-9.8,0.0,0.0,0.0,24.5,33.68,35.37
199.20763,-0.22,0.18,-9.68,0.0,0.0,0.0,25.25,33.68,36.56
199.231687,-0.23,0.21,-9.73,0.0,0.0,0.0,25.25,33.68,36.56
199.255713,-0.01,0.06,-9.78,0.0,0.0,0.0,25.25,33.68,36.56
199.275715,0.12,-0.03,-9.85,0.0,0.0,0.0,24.87,34.06,35.68
199.299713,0.05,-0.01,-9.82,0.0,0.0,0.0,24.87,34.06,35.68
199.323815,-0.09,0.09,-9.75,0.0,0.0,0.0,24.5,34.06,36.56
199.34381,-0.26,0.21,-9.69,0.0,0.0,0.0,24.5,34.06,36.56
199.367825,-0.2,0.18,-9.71,0.0,0.0,0.0,24.5,34.06,36.56
199.387827,0.04,0.02,-9.83,0.0,0.0,0.0,24.87,34.06,36.06
199.411829,0.12,-0.01,-9.84,0.0,0.0,0.0,24.87,34.06,36.06
199.435824,0.01,0.04,-9.78,0.0,0.0,0.0,25.68,34.06,36.06
199.45581,-0.21,0.16,-9.74,0.0,0.0,0.0,25.68,34.06,36.06
199.479821,-0.24,0.19,-9.71,0.0,0.0,0.0,25.68,34.06,36.06
199.503829,-0.04,0.04,-9.77,0.0,0.0,0.0,24.87,33.37,35.68
199.523824,0.06,0.0,-9.86,0.0,0.0,0.0,24.87,33.37,35.68
199.547807,0.07,0.0,-9.84,0.0,0.0,0.0,25.25,33.68,37.68
199.567756,-0.03,0.08,-9.77,0.0,0.0,0.0,25.25,33.68,37.68
199.59182,-0.23,0.19,-9.71,0.0,0.0,0.0,25.25,33.68,37.68
199.615839,-0.19,0.14,-9.71,0.0,0.0,0.0,24.5,33.37,35.37
199.635774,0.0,0.04,-9.85,0.0,0.0,0.0,24.5,33.37,35.37
199.659767,-0.21,0.19,-9.69,0.0,0.0,0.0,24.5,34.06,36.06
199.683536,-0.07,0.09,-9.75,0.0,0.0,0.0,24.5,34.06,36.06
199.703783,0.05,0.0,-9.83,0.0,0.0,0.0,25.25,33.68,36.06
199.727784,0.07,-0.01,-9.84,0.0,0.0,0.0,25.25,33.68,36.06
199.747785,-0.03,0.04,-9.77,0.0,0.0,0.0,25.25,33.68,36.06
199.771767,-0.17,0.18,-9.72,0.0,0.0,0.0,25.68,33.68,35.68
199.807765,-0.12,0.16,-9.72,0.0,0.0,0.0,25.68,33.68,35.68
199.827805,0.0,0.06,-9.77,0.0,0.0,0.0,25.25,33.68,36.56
199.851772,0.07,-0.01,-9.86,0.0,0.0,0.0,25.25,33.68,36.56
199.871756,0.03,0.01,-9.78,0.0,0.0,0.0,25.25,33.68,36.56
199.895807,-0.16,0.12,-9.76,0.0,0.0,0.0,24.87,34.06,36.06
199.919756,-0.21,0.17,-9.76,0.0,0.0,0.0,24.87,34.06,36.06
199.939754,-0.09,0.09,-9.77,0.0,0.0,0.0,24.5,33.68,36.56
199.963799,0.05,0.04,-9.8,0.0,0.0,0.0,24.5,33.68,36.56
199.987813,0.07,0.01,-9.83,0.0,0.0,0.0,24.5,33.68,36.56
200.007766,-0.02,0.05,-9.78,0.0,0.0,0.0,24.87,33.68,36.06
200.031812,-0.2,0.14,-9.74,0.0,0.0,0.0,24.87,33.68,36.06
200.051783,-0.15,0.13,-9.73,0.0,0.0,0.0,25.25,33.68,36.87
200.075766,-0.04,0.04,-9.82,0.0,0.0,0.0,25.25,33.68,36.87
200.099807,-0.21,0.16,-9.77,0.0,0.0,0.0,25.25,34.06,37.37
200.119758,-0.09,0.08,-9.72,0.0,0.0,0.0,25.25,34.06,37.37
200.143752,0.01,0.04,-9.85,0.0,0.0,0.0,25.25,34.06,37.37
200.16795,0.08,0.0,-9.8,0.0,0.0,0.0,24.87,33.37,36.56
200.18791,-0.08,0.1,-9.8,0.0,0.0,0.0,24.87,33.37,36.56
200.211954,-0.15,0.14,-9.71,0.0,0.0,0.0,25.68,34.06,36.87
200.231995,-0.16,0.13,-9.76,0.0,0.0,0.0,25.68,34.06,36.87
200.255767,-0.04,0.04,-9.75,0.0,0.0,0.0,25.68,34.06,36.87
200.279818,0.05,0.01,-9.85,0.0,0.0,0.0,25.25,33.37,37.37
200.299794,0.05,0.02,-9.78,0.0,0.0,0.0,25.25,33.37,37.37
200.323762,-0.08,0.11,-9.8,0.0,0.0,0.0,24.87,33.68,35.68
200.3478,-0.16,0.16,-9.69,0.0,0.0,0.0,24.87,33.68,35.68
200.36782,-0.12,0.1,-9.78,0.0,0.0,0.0,24.87,33.68,35.68
200.391817,0.02,0.02,-9.82,0.0,0.0,0.0,24.87,34.5,36.87
200.411804,0.05,0.0,-9.89,0.0,0.0,0.0,24.87,34.5,36.87
200.435761,-0.05,0.08,-9.77,0.0,0.0,0.0,25.68,34.06,37.37
200.459795,-0.17,0.12,-9.78,0.0,0.0,0.0,25.68,34.06,37.37
200.479809,-0.17,0.13,-9.72,0.0,0.0,0.0,25.68,34.06,37.37
200.503761,-0.07,0.08,-9.78,0.0,0.0,0.0,25.25,33.68,36.06
200.5278,0.06,0.0,-9.78,0.0,0.0,0.0,25.25,33.68,36.06
200.547801,0.01,0.02,-9.84,0.0,0.0,0.0,24.87,34.06,36.06
200.571776,-0.11,0.08,-9.76,0.0,0.0,0.0,24.87,34.06,36.06
200.591805,-0.17,0.15,-9.73,0.0,0.0,0.0,24.87,34.06,36.06
200.6158,-0.11,0.11,-9.75,0.0,0.0,0.0,24.87,33.68,36.06
200.639763,-0.12,0.1,-9.75,0.0,0.0,0.0,24.87,34.06,35.68
200.659787,-0.12,0.11,-9.67,0.0,0.0,0.0,24.87,34.06,36.06
200.683781,-0.08,0.08,-9.8,0.0,0.0,0.0,24.87,34.06,36.06
200.7078,0.05,0.01,-9.78,0.0,0.0,0.0,24.87,34.06,36.56
200.727757,0.01,0.04,-9.85,0.0,0.0,0.0,24.87,34.06,36.56
200.751763,-0.06,0.1,-9.73,0.0,0.0,0.0,24.87,34.06,36.56
200.77176,-0.11,0.12,-9.74,0.0,0.0,0.0,24.5,33.37,35.68
200.795797,-0.13,0.11,-9.73,0.0,0.0,0.0,24.5,33.37,35.68
200.819774,-0.02,0.02,-9.81,0.0,0.0,0.0,25.25,34.06,36.06
200.839766,0.01,0.02,-9.82,0.0,0.0,0.0,25.25,34.06,36.06
200.863797,-0.03,0.07,-9.82,0.0,0.0,0.0,25.25,34.06,36.06
200.887755,-0.09,0.12,-9.73,0.0,0.0,0.0,24.87,33.68,36.87
200.907793,-0.14,0.14,-9.77,0.0,0.0,0.0,24.87,33.68,36.87
200.931802,-0.1,0.09,-9.74,0.0,0.0,0.0,25.25,34.06,35.68
200.951759,0.0,0.02,-9.85,0.0,0.0,0.0,25.25,34.06,35.68
200.975806,0.02,0.01,-9.81,0.0,0.0,0.0,25.25,34.06,35.68
200.999796,-0.06,0.1,-9.82,0.0,0.0,0.0,24.87,33.68,36.87
201.019763,-0.13,0.13,-9.71,0.0,0.0,0.0,24.87,33.68,36.87
201.043795,-0.09,0.12,-9.74,0.0,0.0,0.0,25.25,34.06,35.37
201.067674,-0.01,0.04,-9.78,0.0,0.0,0.0,25.25,34.06,35.37
201.087687,0.01,0.02,-9.82,0.0,0.0,0.0,25.25,34.06,35.37
201.11171,-0.04,0.07,-9.77,0.0,0.0,0.0,24.18,34.5,36.06
201.131699,-0.09,0.1,-9.77,0.0,0.0,0.0,24.18,34.5,36.06
201.155652,-0.13,0.12,-9.72,0.0,0.0,0.0,25.25,33.37,36.56
201.179786,-0.05,0.07,-9.77,0.0,0.0,0.0,24.5,34.06,36.87
201.199804,-0.13,0.11,-9.75,0.0,0.0,0.0,24.5,34.5,37.37
201.223801,-0.13,0.1,-9.73,0.0,0.0,0.0,24.5,34.5,37.37
201.247802,-0.02,0.03,-9.8,0.0,0.0,0.0,24.5,34.5,37.37
201.267806,0.01,0.04,-9.81,0.0,0.0,0.0,25.25,33.0,36.06
201.291775,-0.04,0.08,-9.78,0.0,0.0,0.0,25.25,33.0,36.06
201.3158,-0.08,0.11,-9.76,0.0,0.0,0.0,24.5,33.68,36.56
201.335754,-0.14,0.12,-9.77,0.0,0.0,0.0,24.5,33.68,36.56
201.359819,-0.05,0.05,-9.77,0.0,0.0,0.0,24.5,33.68,36.56
201.379848,0.0,0.03,-9.75,0.0,0.0,0.0,24.87,33.37,36.87
201.403812,0.0,0.05,-9.82,0.0,0.0,0.0,24.87,33.37,36.87
201.427868,-0.03,0.07,-9.76,0.0,0.0,0.0,25.25,34.5,36.87
201.44786,-0.12,0.14,-9.77,0.0,0.0,0.0,25.25,34.5,36.87
201.47183,-0.11,0.11,-9.75,0.0,0.0,0.0,25.25,34.5,36.87
201.491853,-0.03,0.06,-9.81,0.0,0.0,0.0,24.87,33.68,36.56
201.515842,0.0,0.02,-9.82,0.0,0.0,0.0,24.87,33.68,36.56
201.539841,-0.03,0.04,-9.81,0.0,0.0,0.0,24.87,34.5,36.06
201.559669,-0.09,0.08,-9.75,0.0,0.0,0.0,24.87,34.5,36.06
201.583669,-0.12,0.12,-9.75,0.0,0.0,0.0,24.87,34.5,36.06
201.60779,-0.06,0.1,-9.77,0.0,0.0,0.0,24.87,34.06,36.56
201.627757,-0.03,0.05,-9.81,0.0,0.0,0.0,24.87,34.06,36.56
201.651713,0.0,0.04,-9.75,0.0,0.0,0.0,25.25,33.68,36.06
201.675746,-0.05,0.05,-9.77,0.0,0.0,0.0,25.25,33.68,36.06
201.695767,-0.12,0.11,-9.74,0.0,0.0,0.0,25.25,33.68,36.06
201.719667,-0.01,0.05,-9.78,0.0,0.0,0.0,24.5,34.87,35.68
201.739689,-0.11,0.1,-9.75,0.0,0.0,0.0,24.5,34.87,35.68
201.763802,-0.1,0.11,-9.75,0.0,0.0,0.0,24.87,33.68,36.06
201.787759,-0.07,0.08,-9.77,0.0,0.0,0.0,24.87,33.68,36.06
201.807809,-0.02,0.04,-9.77,0.0,0.0,0.0,25.25,34.5,36.87
201.831801,0.0,0.04,-9.81,0.0,0.0,0.0,25.25,34.5,36.87
201.855769,-0.04,0.08,-9.76,0.0,0.0,0.0,25.25,34.5,36.87
201.875804,-0.09,0.12,-9.74,0.0,0.0,0.0,24.87,33.37,37.37
201.8998,-0.09,0.1,-9.76,0.0,0.0,0.0,24.87,33.37,37.37
201.91976,-0.05,0.06,-9.77,0.0,0.0,0.0,24.5,34.87,36.56
201.943805,0.0,0.04,-9.78,0.0,0.0,0.0,24.5,34.87,36.56
201.96778,0.0,0.03,-9.74,0.0,0.0,0.0,25.25,33.37,36.56
201.987767,-0.08,0.12,-9.82,0.0,0.0,0.0,25.25,33.37,36.56
202.011805,-0.11,0.12,-9.77,0.0,0.0,0.0,25.25,33.37,36.56
202.035762,-0.07,0.09,-9.77,0.0,0.0,0.0,25.25,34.06,36.87
202.059712,-0.03,0.08,-9.78,0.0,0.0,0.0,25.25,34.06,36.87
202.079717,-0.01,0.05,-9.82,0.0,0.0,0.0,24.87,33.37,38.06
202.099702,-0.04,0.05,-9.78,0.0,0.0,0.0,24.87,33.37,38.06
202.12367,-0.09,0.1,-9.77,0.0,0.0,0.0,24.87,33.37,38.06
202.147712,-0.1,0.11,-9.77,0.0,0.0,0.0,25.25,34.06,36.87
202.167666,-0.05,0.08,-9.8,0.0,0.0,0.0,25.25,34.06,36.87
202.191493,-0.01,0.06,-9.77,0.0,0.0,0.0,24.87,33.0,35.37
202.21574,-0.04,0.06,-9.82,0.0,0.0,0.0,24.87,33.0,35.37
202.235523,-0.07,0.08,-9.77,0.0,0.0,0.0,24.87,33.0,35.37
202.259705,-0.02,0.03,-9.78,0.0,0.0,0.0,24.87,34.06,36.06
202.2797,-0.03,0.07,-9.78,0.0,0.0,0.0,24.87,34.06,36.06
202.303762,-0.09,0.09,-9.73,0.0,0.0,0.0,24.87,34.06,36.87
202.327807,-0.08,0.11,-9.77,0.0,0.0,0.0,24.87,34.06,36.87
202.347805,-0.06,0.07,-9.77,0.0,0.0,0.0,25.25,33.68,36.56
202.371753,0.0,0.06,-9.8,0.0,0.0,0.0,25.25,33.68,36.56
202.3958,-0.04,0.07,-9.77,0.0,0.0,0.0,25.25,33.68,36.56
202.415813,-0.09,0.1,-9.77,0.0,0.0,0.0,24.87,34.5,36.06
202.439798,-0.1,0.09,-9.76,0.0,0.0,0.0,24.87,34.5,36.06
202.459766,-0.08,0.09,-9.77,0.0,0.0,0.0,25.25,33.68,37.37
202.4838,-0.06,0.06,-9.74,0.0,0.0,0.0,25.25,33.68,37.37
202.507814,-0.01,0.05,-9.83,0.0,0.0,0.0,25.25,33.68,37.37
202.527961,-0.04,0.06,-9.77,0.0,0.0,0.0,25.68,34.06,36.06
202.551777,-0.09,0.1,-9.77,0.0,0.0,0.0,25.68,34.06,36.06
202.575929,-0.08,0.11,-9.74,0.0,0.0,0.0,24.87,34.06,36.56
202.595966,-0.07,0.06,-9.77,0.0,0.0,0.0,24.87,34.06,36.56
202.619927,-0.01,0.03,-9.77,0.0,0.0,0.0,24.87,34.06,36.56
202.639821,-0.02,0.06,-9.75,0.0,0.0,0.0,25.25,34.5,37.37
202.663826,-0.08,0.1,-9.77,0.0,0.0,0.0,25.25,34.5,37.37
202.687828,-0.1,0.11,-9.76,0.0,0.0,0.0,24.87,33.68,36.06
202.707832,-0.07,0.1,-9.77,0.0,0.0,0.0,24.87,33.68,36.06
202.731819,-0.05,0.05,-9.78,0.0,0.0,0.0,24.87,33.68,36.06
202.755588,-0.01,0.06,-9.8,0.0,0.0,0.0,25.68,34.5,35.68
202.775736,-0.06,0.08,-9.77,0.0,0.0,0.0,25.68,34.5,35.68
202.799808,-0.03,0.06,-9.77,0.0,0.0,0.0,25.25,34.5,36.06
202.819823,-0.01,0.05,-9.78,0.0,0.0,0.0,25.25,34.5,36.06
202.843833,-0.06,0.09,-9.77,0.0,0.0,0.0,24.87,34.06,36.56
202.867824,-0.11,0.09,-9.77,0.0,0.0,0.0,24.87,34.06,36.56
202.887841,-0.08,0.1,-9.77,0.0,0.0,0.0,24.87,34.06,36.56
202.911821,-0.03,0.04,-9.77,0.0,0.0,0.0,25.25,34.06,37.37
202.935836,-0.04,0.07,-9.77,0.0,0.0,0.0,25.25,34.06,37.37
202.955832,-0.08,0.1,-9.77,0.0,0.0,0.0,23.75,33.68,35.68
202.979827,-0.08,0.1,-9.76,0.0,0.0,0.0,23.75,33.68,35.68
202.999827,-0.08,0.09,-9.77,0.0,0.0,0.0,23.75,33.68,35.68
203.023837,-0.04,0.06,-9.77,0.0,0.0,0.0,24.87,33.68,35.68
203.047832,-0.02,0.06,-9.8,0.0,0.0,0.0,24.87,33.68,35.68
203.067858,-0.05,0.08,-9.77,0.0,0.0,0.0,25.25,33.37,36.56
203.091749,-0.09,0.09,-9.8,0.0,0.0,0.0,25.25,33.37,36.56
203.115749,-0.09,0.09,-9.75,0.0,0.0,0.0,25.25,33.37,36.56
203.13582,-0.05,0.08,-9.77,0.0,0.0,0.0,24.5,33.68,36.06
203.159826,-0.02,0.03,-9.82,0.0,0.0,0.0,24.5,33.68,36.06
203.183845,-0.01,0.06,-9.75,0.0,0.0,0.0,24.87,33.68,37.37
203.203838,-0.07,0.11,-9.81,0.0,0.0,0.0,24.87,33.68,37.37
203.227812,-0.1,0.11,-9.76,0.0,0.0,0.0,24.87,33.68,37.37
203.24782,-0.09,0.09,-9.8,0.0,0.0,0.0,25.25,34.06,36.06
203.271822,-0.02,0.03,-9.77,0.0,0.0,0.0,25.25,34.06,36.06
203.295822,-0.03,0.04,-9.8,0.0,0.0,0.0,24.5,33.68,37.37
203.315827,-0.03,0.07,-9.78,0.0,0.0,0.0,24.5,33.68,37.37
203.339831,0.0,0.06,-9.77,0.0,0.0,0.0,24.5,34.5,35.68
203.363811,-0.02,0.07,-9.77,0.0,0.0,0.0,24.5,34.5,35.68
203.383841,-0.09,0.09,-9.77,0.0,0.0,0.0,24.5,34.5,35.68
203.40784,-0.11,0.09,-9.77,0.0,0.0,0.0,24.87,33.0,36.56
203.427847,-0.09,0.08,-9.75,0.0,0.0,0.0,24.87,33.0,36.56
203.451843,-0.03,0.07,-9.82,0.0,0.0,0.0,24.87,33.37,36.87
203.475851,-0.02,0.04,-9.76,0.0,0.0,0.0,24.87,33.37,36.87
203.495858,-0.06,0.1,-9.77,0.0,0.0,0.0,24.87,33.37,36.87
203.519775,-0.06,0.06,-9.74,0.0,0.0,0.0,25.68,33.68,36.06
203.543869,-0.09,0.09,-9.78,0.0,0.0,0.0,25.68,33.68,36.06
203.563775,-0.06,0.06,-9.74,0.0,0.0,0.0,24.87,34.06,36.56
203.587775,-0.04,0.06,-9.82,0.0,0.0,0.0,24.87,34.06,36.56
203.60773,-0.02,0.07,-9.77,0.0,0.0,0.0,24.87,34.06,36.56
203.631712,-0.06,0.08,-9.77,0.0,0.0,0.0,25.25,34.06,35.68
203.655761,-0.1,0.1,-9.75,0.0,0.0,0.0,25.25,34.06,35.68
203.6758,-0.04,0.1,-9.77,0.0,0.0,0.0,24.5,33.37,36.56
203.699762,-0.04,0.05,-9.77,0.0,0.0,0.0,24.5,33.37,36.56
203.72355,-0.01,0.04,-9.81,0.0,0.0,0.0,24.5,33.37,36.56
203.743717,-0.06,0.06,-9.76,0.0,0.0,0.0,24.5,34.06,36.87
203.767726,-0.08,0.1,-9.77,0.0,0.0,0.0,24.5,34.06,36.87
203.787729,-0.08,0.08,-9.74,0.0,0.0,0.0,24.87,33.68,36.06
203.81172,-0.08,0.07,-9.77,0.0,0.0,0.0,24.87,33.68,36.06
203.835827,-0.01,0.04,-9.77,0.0,0.0,0.0,24.87,33.68,36.06
203.855814,-0.02,0.07,-9.81,0.0,0.0,0.0,24.87,33.37,36.87
203.879708,-0.06,0.06,-9.78,0.0,0.0,0.0,24.5,34.06,37.37
203.911744,-0.02,0.06,-9.78,0.0,0.0,0.0,24.87,34.06,36.87
203.935823,-0.06,0.05,-9.77,0.0,0.0,0.0,24.87,34.06,36.87
203.959745,-0.07,0.06,-9.77,0.0,0.0,0.0,24.87,34.06,35.68
203.97968,-0.06,0.08,-9.77,0.0,0.0,0.0,24.87,34.06,35.68
204.003722,-0.07,0.07,-9.77,0.0,0.0,0.0,24.87,34.06,35.68
204.023864,-0.04,0.07,-9.77,0.0,0.0,0.0,24.5,34.06,35.68
204.047866,-0.03,0.09,-9.8,0.0,0.0,0.0,24.5,34.06,35.68
204.07187,-0.06,0.07,-9.77,0.0,0.0,0.0,25.25,34.06,37.68
204.091807,-0.09,0.08,-9.77,0.0,0.0,0.0,25.25,34.06,37.68
204.115855,-0.07,0.08,-9.77,0.0,0.0,0.0,25.25,34.06,37.68
204.139827,-0.05,0.06,-9.77,0.0,0.0,0.0,24.87,33.0,36.56
204.160329,-0.02,0.06,-9.8,0.0,0.0,0.0,24.87,33.0,36.56
204.183713,-0.06,0.1,-9.78,0.0,0.0,0.0,24.87,34.06,36.56
204.203751,-0.07,0.1,-9.77,0.0,0.0,0.0,24.87,34.06,36.56
204.227756,-0.09,0.08,-9.77,0.0,0.0,0.0,24.87,34.06,36.56
204.25183,-0.06,0.08,-9.77,0.0,0.0,0.0,25.68,34.06,35.37
204.271809,-0.04,0.07,-9.8,0.0,0.0,0.0,25.68,34.06,35.37
204.295768,-0.03,0.05,-9.77,0.0,0.0,0.0,25.68,34.06,36.56
204.319679,-0.05,0.09,-9.77,0.0,0.0,0.0,25.68,34.06,36.56
204.339821,-0.04,0.06,-9.78,0.0,0.0,0.0,25.25,33.37,36.87
204.363877,-0.07,0.07,-9.82,0.0,0.0,0.0,25.25,33.37,36.87
204.387926,-0.07,0.09,-9.75,0.0,0.0,0.0,25.25,33.37,36.87
204.407974,-0.06,0.1,-9.77,0.0,0.0,0.0,24.87,33.68,35.68
204.431951,-0.05,0.1,-9.77,0.0,0.0,0.0,24.87,33.68,35.68
204.451872,-0.05,0.06,-9.81,0.0,0.0,0.0,25.25,33.0,36.56
204.475955,-0.05,0.05,-9.8,0.0,0.0,0.0,25.25,33.0,36.56
204.499885,-0.04,0.06,-9.77,0.0,0.0,0.0,25.25,33.0,36.56
204.519895,-0.08,0.1,-9.77,0.0,0.0,0.0,25.25,33.68,35.68
204.543787,-0.08,0.11,-9.77,0.0,0.0,0.0,25.25,33.68,35.68
204.567838,-0.02,0.07,-9.77,0.0,0.0,0.0,25.25,33.68,36.06
204.587805,-0.02,0.08,-9.8,0.0,0.0,0.0,25.25,33.68,36.06
204.611812,-0.04,0.07,-9.77,0.0,0.0,0.0,25.25,33.68,36.06
204.631866,-0.08,0.08,-9.77,0.0,0.0,0.0,24.5,34.06,36.87
204.655866,-0.07,0.09,-9.76,0.0,0.0,0.0,24.5,34.06,36.87
204.679868,-0.04,0.1,-9.77,0.0,0.0,0.0,25.68,34.5,37.37
204.699975,-0.02,0.07,-9.77,0.0,0.0,0.0,25.68,34.5,37.37
204.723963,-0.02,0.09,-9.77,0.0,0.0,0.0,25.68,34.5,37.37
204.747949,-0.08,0.06,-9.78,0.0,0.0,0.0,24.87,34.06,34.87
204.767845,-0.07,0.09,-9.76,0.0,0.0,0.0,24.87,34.06,34.87
204.791825,-0.07,0.08,-9.76,0.0,0.0,0.0,24.5,34.06,36.56
204.81191,-0.04,0.06,-9.8,0.0,0.0,0.0,24.5,34.06,36.56
204.835912,-0.03,0.08,-9.78,0.0,0.0,0.0,24.5,34.06,36.56
204.85996,-0.03,0.06,-9.77,0.0,0.0,0.0,24.87,33.0,35.68
204.879956,-0.05,0.08,-9.77,0.0,0.0,0.0,25.68,33.68,37.68
204.903913,-0.02,0.07,-9.78,0.0,0.0,0.0,24.87,34.06,37.37
204.9359,-0.06,0.07,-9.78,0.0,0.0,0.0,24.87,34.06,37.37
204.95992,-0.06,0.08,-9.75,0.0,0.0,0.0,24.5,33.68,36.06
204.983931,-0.08,0.09,-9.78,0.0,0.0,0.0,24.5,33.68,36.06
205.003906,-0.07,0.08,-9.77,0.0,0.0,0.0,24.5,33.68,36.06
205.02795,-0.04,0.07,-9.77,0.0,0.0,0.0,25.68,34.06,37.37
205.051925,-0.04,0.06,-9.8,0.0,0.0,0.0,25.68,34.06,37.37
205.071961,-0.05,0.08,-9.77,0.0,0.0,0.0,24.5,34.5,34.87
205.095966,-0.07,0.09,-9.77,0.0,0.0,0.0,24.5,34.5,34.87
205.115964,-0.05,0.1,-9.75,0.0,0.0,0.0,24.5,34.5,34.87
205.139918,-0.03,0.08,-9.77,0.0,0.0,0.0,25.25,33.68,36.56
205.16394,-0.04,0.04,-9.81,0.0,0.0,0.0,25.25,33.68,36.56
205.18392,-0.04,0.06,-9.8,0.0,0.0,0.0,25.68,33.68,36.87
205.207947,-0.07,0.07,-9.78,0.0,0.0,0.0,25.68,33.68,36.87
205.23196,-0.09,0.07,-9.77,0.0,0.0,0.0,25.68,33.68,36.87
205.251902,-0.06,0.08,-9.76,0.0,0.0,0.0,25.25,33.37,35.68
205.275954,-0.04,0.07,-9.78,0.0,0.0,0.0,25.25,33.37,35.68
205.295954,-0.03,0.07,-9.77,0.0,0.0,0.0,24.87,33.37,36.56
205.319912,-0.07,0.06,-9.78,0.0,0.0,0.0,24.87,34.06,36.56
205.343953,-0.05,0.07,-9.77,0.0,0.0,0.0,24.87,33.68,37.37
205.363947,-0.04,0.07,-9.8,0.0,0.0,0.0,24.87,33.68,37.37
205.387911,-0.08,0.09,-9.77,0.0,0.0,0.0,24.87,33.68,37.37
205.411952,-0.08,0.06,-9.77,0.0,0.0,0.0,24.87,33.37,36.87
205.431782,-0.05,0.08,-9.77,0.0,0.0,0.0,24.87,33.37,36.87
205.45592,-0.04,0.07,-9.75,0.0,0.0,0.0,25.68,33.37,36.56
205.475967,-0.03,0.06,-9.85,0.0,0.0,0.0,25.68,33.37,36.56
205.499951,-0.06,0.09,-9.77,0.0,0.0,0.0,25.68,33.37,36.56
205.523963,-0.07,0.09,-9.8,0.0,0.0,0.0,24.87,33.68,35.68
205.543963,-0.09,0.08,-9.76,0.0,0.0,0.0,24.87,33.68,35.68
205.567875,-0.04,0.07,-9.78,0.0,0.0,0.0,25.25,34.06,36.56
205.591926,-0.04,0.05,-9.78,0.0,0.0,0.0,25.25,34.06,36.56
205.611923,-0.06,0.05,-9.77,0.0,0.0,0.0,25.25,34.06,36.56
205.635854,-0.07,0.07,-9.77,0.0,0.0,0.0,24.87,33.68,35.68
205.655931,-0.05,0.1,-9.75,0.0,0.0,0.0,24.87,33.68,35.68
205.679861,-0.05,0.06,-9.76,0.0,0.0,0.0,25.25,34.06,36.87
205.703823,-0.04,0.07,-9.81,0.0,0.0,0.0,25.25,34.06,36.87
205.723824,-0.05,0.08,-9.82,0.0,0.0,0.0,25.25,34.06,36.87
205.747866,-0.07,0.09,-9.78,0.0,0.0,0.0,25.25,34.06,36.56
205.771925,-0.07,0.09,-9.77,0.0,0.0,0.0,25.25,34.06,36.56
205.791873,-0.07,0.1,-9.76,0.0,0.0,0.0,24.5,34.06,36.56
205.815967,-0.07,0.07,-9.78,0.0,0.0,0.0,24.5,34.06,36.56
205.835924,-0.05,0.07,-9.81,0.0,0.0,0.0,24.5,34.06,36.56
205.859944,-0.08,0.09,-9.77,0.0,0.0,0.0,25.25,34.06,35.68
205.883919,-0.06,0.06,-9.77,0.0,0.0,0.0,25.25,34.06,35.68
205.903908,-0.05,0.06,-9.77,0.0,0.0,0.0,25.25,33.0,36.06
205.927957,-0.07,0.07,-9.77,0.0,0.0,0.0,25.25,33.0,36.06
205.95193,-0.07,0.09,-9.77,0.0,0.0,0.0,24.87,33.68,36.56
205.971951,-0.06,0.08,-9.8,0.0,0.0,0.0,24.87,33.68,36.56
205.995918,-0.07,0.07,-9.77,0.0,0.0,0.0,24.87,33.68,36.56
206.015939,-0.05,0.06,-9.76,0.0,0.0,0.0,25.25,33.68,36.56
206.039928,-0.05,0.06,-9.77,0.0,0.0,0.0,25.25,33.68,36.56
206.063746,-0.06,0.08,-9.77,0.0,0.0,0.0,24.87,33.37,35.68
206.083847,-0.07,0.07,-9.77,0.0,0.0,0.0,24.87,33.37,35.68
206.107926,-0.07,0.09,-9.77,0.0,0.0,0.0,24.87,33.37,35.68
206.131889,-0.05,0.07,-9.78,0.0,0.0,0.0,24.5,33.68,36.87
206.151935,-0.05,0.06,-9.77,0.0,0.0,0.0,24.5,33.68,36.87
206.175902,-0.06,0.07,-9.78,0.0,0.0,0.0,24.18,33.68,37.37
206.195923,-0.06,0.09,-9.75,0.0,0.0,0.0,24.18,33.68,37.37
206.219926,-0.06,0.08,-9.77,0.0,0.0,0.0,24.18,33.68,37.37
206.243917,-0.06,0.07,-9.77,0.0,0.0,0.0,24.5,33.68,36.06
206.263929,-0.02,0.08,-9.78,0.0,0.0,0.0,24.5,33.68,36.06
206.28793,-0.05,0.07,-9.77,0.0,0.0,0.0,25.68,33.0,36.06
206.311925,-0.06,0.08,-9.77,0.0,0.0,0.0,25.68,33.0,36.06
206.331904,-0.08,0.06,-9.77,0.0,0.0,0.0,25.68,33.0,36.06
206.355924,-0.08,0.08,-9.77,0.0,0.0,0.0,25.25,33.68,36.06
206.375903,-0.04,0.06,-9.77,0.0,0.0,0.0,25.25,33.68,36.06
206.399927,-0.06,0.07,-9.77,0.0,0.0,0.0,24.87,33.37,36.56
206.423912,-0.05,0.07,-9.77,0.0,0.0,0.0,24.87,33.37,36.56
206.443904,-0.05,0.08,-9.77,0.0,0.0,0.0,25.25,33.68,35.68
206.467921,-0.05,0.07,-9.81,0.0,0.0,0.0,25.25,33.68,35.68
206.491922,-0.05,0.07,-9.77,0.0,0.0,0.0,25.25,33.68,35.68
206.511928,-0.06,0.08,-9.78,0.0,0.0,0.0,25.25,33.68,35.37
206.53591,-0.07,0.07,-9.8,0.0,0.0,0.0,25.25,33.68,35.37
206.555876,-0.07,0.06,-9.8,0.0,0.0,0.0,25.25,34.06,36.87
206.579915,-0.04,0.06,-9.8,0.0,0.0,0.0,25.25,34.06,36.87
206.603919,-0.05,0.07,-9.8,0.0,0.0,0.0,25.25,34.06,36.87
206.623931,-0.07,0.07,-9.77,0.0,0.0,0.0,24.87,33.0,36.06
206.647922,-0.05,0.09,-9.77,0.0,0.0,0.0,24.87,33.0,36.06
206.671923,-0.05,0.08,-9.77,0.0,0.0,0.0,25.25,33.37,36.06
206.691904,-0.06,0.06,-9.78,0.0,0.0,0.0,25.25,33.37,36.06
206.715937,-0.06,0.08,-9.76,0.0,0.0,0.0,25.25,33.37,36.06
206.739923,-0.08,0.06,-9.8,0.0,0.0,0.0,25.25,34.06,34.56
206.759923,-0.05,0.1,-9.77,0.0,0.0,0.0,25.25,34.06,34.56
206.78378,-0.07,0.07,-9.75,0.0,0.0,0.0,26.0,34.06,36.56
206.803917,-0.07,0.06,-9.77,0.0,0.0,0.0,26.0,34.06,36.56
206.827969,-0.04,0.06,-9.78,0.0,0.0,0.0,26.0,34.06,36.56
206.851929,-0.08,0.08,-9.78,0.0,0.0,0.0,24.18,33.68,35.37
206.871912,-0.07,0.09,-9.77,0.0,0.0,0.0,24.18,33.68,35.37
206.895956,-0.06,0.06,-9.78,0.0,0.0,0.0,24.5,33.68,34.87
206.919911,-0.04,0.07,-9.77,0.0,0.0,0.0,24.5,33.68,34.87
206.939922,-0.07,0.06,-9.77,0.0,0.0,0.0,25.25,34.5,35.68
206.963966,-0.05,0.07,-9.76,0.0,0.0,0.0,25.25,34.5,35.68
206.983918,-0.05,0.08,-9.77,0.0,0.0,0.0,25.25,34.5,35.68
207.007959,-0.06,0.07,-9.78,0.0,0.0,0.0,25.25,34.06,37.37
207.031954,-0.05,0.08,-9.78,0.0,0.0,0.0,25.25,34.06,37.37
207.051936,-0.06,0.08,-9.77,0.0,0.0,0.0,25.25,34.06,36.18
207.07585,-0.09,0.1,-9.77,0.0,0.0,0.0,25.25,34.06,36.18
207.099856,-0.07,0.09,-9.77,0.0,0.0,0.0,25.25,34.06,36.18
207.119834,-0.04,0.05,-9.77,0.0,0.0,0.0,24.87,33.68,37.68
207.14395,-0.05,0.06,-9.76,0.0,0.0,0.0,24.87,33.68,37.68
207.163951,-0.07,0.05,-9.77,0.0,0.0,0.0,24.87,34.06,36.56
207.187818,-0.06,0.08,-9.8,0.0,0.0,0.0,24.87,34.06,36.56
207.21196,-0.05,0.07,-9.77,0.0,0.0,0.0,24.87,34.06,36.56
207.231952,-0.06,0.07,-9.78,0.0,0.0,0.0,24.5,33.68,36.56
207.255924,-0.04,0.07,-9.75,0.0,0.0,0.0,24.5,33.68,36.56
207.27995,-0.05,0.08,-9.77,0.0,0.0,0.0,24.5,34.06,36.87
207.299965,-0.06,0.07,-9.78,0.0,0.0,0.0,24.5,34.06,36.87
207.323961,-0.08,0.1,-9.76,0.0,0.0,0.0,24.5,34.06,36.87
207.343957,-0.05,0.1,-9.8,0.0,0.0,0.0,24.18,33.68,36.06
207.36792,-0.05,0.06,-9.8,0.0,0.0,0.0,24.18,33.68,36.06
207.391957,-0.06,0.05,-9.76,0.0,0.0,0.0,25.25,34.5,36.56
207.411954,-0.06,0.08,-9.77,0.0,0.0,0.0,25.25,34.5,36.56
207.435923,-0.06,0.09,-9.77,0.0,0.0,0.0,25.25,34.5,36.56
207.459906,-0.08,0.07,-9.76,0.0,0.0,0.0,24.5,33.68,36.87
207.479954,-0.06,0.07,-9.77,0.0,0.0,0.0,24.5,34.06,35.68
207.503914,-0.07,0.09,-9.77,0.0,0.0,0.0,24.5,34.06,35.68
207.523927,-0.06,0.07,-9.77,0.0,0.0,0.0,24.5,34.06,35.68
207.547957,-0.06,0.06,-9.77,0.0,0.0,0.0,24.87,34.06,37.68
207.571913,-0.05,0.08,-9.8,0.0,0.0,0.0,24.87,34.06,37.68
207.591861,-0.05,0.07,-9.77,0.0,0.0,0.0,25.68,33.37,36.56
207.615807,-0.07,0.07,-9.77,0.0,0.0,0.0,25.68,33.37,36.56
207.639862,-0.06,0.08,-9.75,0.0,0.0,0.0,25.68,33.37,36.56
207.659938,-0.03,0.06,-9.77,0.0,0.0,0.0,25.68,33.68,36.06
207.683989,-0.04,0.07,-9.77,0.0,0.0,0.0,25.68,33.68,36.06
207.703917,-0.06,0.08,-9.77,0.0,0.0,0.0,24.18,33.37,37.68
207.727951,-0.08,0.09,-9.76,0.0,0.0,0.0,24.18,33.37,37.68
207.751801,-0.07,0.09,-9.77,0.0,0.0,0.0,24.18,33.37,37.68
207.771936,-0.05,0.07,-9.76,0.0,0.0,0.0,25.25,33.68,36.87
207.795866,-0.06,0.08,-9.8,0.0,0.0,0.0,25.25,33.68,36.87
207.819837,-0.05,0.06,-9.78,0.0,0.0,0.0,24.5,32.56,34.87
207.839872,-0.08,0.08,-9.78,0.0,0.0,0.0,24.5,32.56,34.87
207.863863,-0.04,0.09,-9.77,0.0,0.0,0.0,24.5,32.56,34.87
207.887831,-0.07,0.07,-9.78,0.0,0.0,0.0,25.25,34.06,36.87
207.907879,-0.05,0.08,-9.81,0.0,0.0,0.0,25.25,34.06,36.87
207.931875,-0.07,0.08,-9.78,0.0,0.0,0.0,24.87,33.37,36.06
207.951815,-0.04,0.08,-9.77,0.0,0.0,0.0,24.87,33.37,36.06
207.975866,-0.08,0.1,-9.71,0.0,0.0,0.0,24.87,33.37,36.06
207.999913,-0.07,0.07,-9.77,0.0,0.0,0.0,24.5,34.06,36.87
208.019839,-0.04,0.12,-9.81,0.0,0.0,0.0,24.87,34.06,36.87
208.043863,-0.05,0.11,-9.77,0.0,0.0,0.0,25.25,34.06,36.56
208.063843,-0.05,0.06,-9.77,0.0,0.0,0.0,25.25,34.06,36.56
208.087826,-0.05,0.04,-9.74,0.0,0.0,0.0,24.87,34.06,36.56
208.111964,-0.08,0.07,-9.75,0.0,0.0,0.0,24.87,34.06,36.56
208.131882,0.0,0.25,-9.69,0.0,0.0,0.0,24.87,34.06,36.56
208.155901,0.04,0.19,-9.77,0.0,0.0,0.0,25.25,33.37,36.56
208.179963,-0.01,0.06,-9.77,0.0,0.0,0.0,25.25,33.37,36.56
208.199999,-0.15,-0.15,-9.8,0.0,0.0,0.0,24.5,33.37,35.37
208.223959,-0.19,-0.12,-9.82,0.0,0.0,0.0,24.5,33.37,35.37
208.247964,-0.1,0.02,-9.78,0.0,0.0,0.0,24.5,33.37,35.37
208.267932,0.02,0.28,-9.76,0.0,0.0,0.0,24.87,33.68,36.06
208.29196,0.08,0.35,-9.76,0.0,0.0,0.0,24.87,33.68,36.06
208.311954,-0.01,0.17,-9.76,0.0,0.0,0.0,24.18,34.06,36.06
208.335917,-0.09,-0.08,-9.77,0.0,0.0,0.0,24.18,34.06,36.06
208.35996,-0.16,-0.21,-9.83,0.0,0.0,0.0,24.18,34.06,36.06
208.37997,-0.14,-0.15,-9.78,0.0,0.0,0.0,24.5,34.06,35.68
208.403915,-0.06,0.1,-9.78,0.0,0.0,0.0,24.5,34.06,35.68
208.42795,-0.01,0.35,-9.67,0.0,0.0,0.0,24.87,34.5,35.68
208.447958,0.01,0.39,-9.69,0.0,0.0,0.0,24.87,34.5,35.68
208.471958,-0.01,0.09,-9.77,0.0,0.0,0.0,24.87,34.5,35.68
208.491962,-0.04,-0.18,-9.82,0.0,0.0,0.0,24.87,34.5,34.87
208.515949,-0.12,-0.3,-9.82,0.0,0.0,0.0,24.87,34.5,34.87
208.539985,-0.14,-0.07,-9.8,0.0,0.0,0.0,24.5,33.37,35.68
208.559789,-0.03,-0.06,-9.82,0.0,0.0,0.0,24.87,33.68,36.06
208.583836,-0.16,-0.21,-9.77,0.0,0.0,0.0,24.5,33.68,35.68
208.60787,-0.14,0.0,-9.81,0.0,0.0,0.0,24.5,33.68,35.68
208.627838,-0.11,0.11,-9.75,0.0,0.0,0.0,24.5,33.68,35.68
208.65187,0.01,0.3,-9.75,0.0,0.0,0.0,23.75,34.06,36.87
208.67192,0.1,0.3,-9.69,0.0,0.0,0.0,23.75,34.06,36.87
208.695934,-0.09,-0.12,-9.77,0.0,0.0,0.0,24.5,33.68,36.87
208.719932,-0.22,-0.11,-9.84,0.0,0.0,0.0,24.5,33.68,36.87
208.739719,-0.21,-0.04,-9.77,0.0,0.0,0.0,24.5,33.68,36.87
208.763924,-0.04,0.09,-9.78,0.0,0.0,0.0,24.87,34.87,34.87
208.787954,0.08,0.24,-9.74,0.0,0.0,0.0,24.87,34.87,34.87
208.819934,0.08,0.26,-9.83,0.0,0.0,0.0,24.18,33.68,35.68
208.843949,-0.05,0.1,-9.77,0.0,0.0,0.0,24.18,33.68,35.68
208.863958,-0.2,-0.11,-9.78,0.0,0.0,0.0,24.18,33.68,35.68
208.887908,-0.33,-0.33,-9.77,0.0,0.0,0.0,24.5,34.5,36.56
208.911946,-0.17,-0.08,-9.84,0.0,0.0,0.0,24.5,34.5,36.56
208.931944,0.17,0.4,-9.71,0.0,0.0,0.0,24.87,33.68,36.06
208.955945,0.28,0.56,-9.82,0.0,0.0,0.0,24.87,33.68,36.06
208.975743,0.14,0.35,-9.74,0.0,0.0,0.0,24.87,33.68,36.06
208.999916,-0.09,0.08,-9.78,0.0,0.0,0.0,24.87,34.5,36.06
209.023927,0.07,0.28,-9.77,0.0,0.0,0.0,23.75,34.06,36.56
209.043901,0.08,0.41,-9.69,0.0,0.0,0.0,24.87,35.18,35.68
209.067943,-0.02,0.13,-9.77,0.0,0.0,0.0,24.87,35.18,35.68
209.091904,-0.11,-0.04,-9.77,0.0,0.0,0.0,23.75,33.68,36.56
209.111913,-0.17,-0.11,-9.83,0.0,0.0,0.0,23.75,33.68,36.56
209.135892,-0.18,-0.05,-9.77,0.0,0.0,0.0,23.75,33.68,36.56
209.155848,-0.05,0.12,-9.78,0.0,0.0,0.0,24.87,34.5,36.87
209.183428,0.04,0.23,-9.77,0.0,0.0,0.0,24.87,34.5,36.87
209.207619,0.01,0.15,-9.77,0.0,0.0,0.0,24.87,34.06,36.56
209.223741,-0.07,0.02,-9.77,0.0,0.0,0.0,24.87,34.06,36.56
209.247738,-0.05,0.01,-9.77,0.0,0.0,0.0,24.87,34.06,36.56
209.271832,-0.06,0.12,-9.76,0.0,0.0,0.0,24.87,34.5,36.06
209.2918,-0.03,0.18,-9.73,0.0,0.0,0.0,24.87,34.5,36.06
209.315756,-0.09,0.14,-9.78,0.0,0.0,0.0,24.87,33.68,36.87
209.335826,-0.16,0.04,-9.72,0.0,0.0,0.0,24.87,33.68,36.87
209.359808,-0.19,-0.07,-9.86,0.0,0.0,0.0,24.87,33.68,36.87
209.383826,0.0,-0.09,-9.75,0.0,0.0,0.0,24.18,34.5,36.06
209.403808,0.21,0.12,-9.91,0.0,0.0,0.0,24.18,34.5,36.06
209.427914,0.17,0.28,-9.77,0.0,0.0,0.0,24.18,34.06,36.56
209.451906,-0.17,0.33,-9.77,0.0,0.0,0.0,24.18,34.06,36.56
209.47191,-0.3,0.12,-9.67,0.0,0.0,0.0,24.18,34.06,36.56
209.49592,-0.3,-0.21,-9.77,0.0,0.0,0.0,24.5,34.5,35.37
209.51591,0.0,-0.19,-9.84,0.0,0.0,0.0,24.5,34.5,35.37
209.539914,0.17,-0.01,-9.85,0.0,0.0,0.0,24.18,34.5,36.18
209.563918,-0.22,-0.12,-9.8,0.0,0.0,0.0,24.5,34.06,36.06
209.583825,-0.03,-0.3,-9.86,0.0,0.0,0.0,24.5,34.5,36.87
209.607831,0.06,-0.13,-9.88,0.0,0.0,0.0,24.5,34.5,36.87
209.631837,-0.03,0.25,-9.75,0.0,0.0,0.0,24.5,34.5,36.87
209.651831,-0.12,0.36,-9.73,0.0,0.0,0.0,24.18,34.5,35.68
209.675839,-0.09,0.25,-9.68,0.0,0.0,0.0,24.18,34.5,35.68
209.69585,0.0,-0.02,-9.83,0.0,0.0,0.0,23.37,34.5,36.56
209.719922,0.03,-0.15,-9.86,0.0,0.0,0.0,23.37,34.5,36.56
209.743946,-0.05,-0.07,-9.78,0.0,0.0,0.0,23.37,34.5,36.56
209.763829,-0.15,0.14,-9.73,0.0,0.0,0.0,24.5,34.5,36.56
209.787919,-0.14,0.26,-9.72,0.0,0.0,0.0,24.5,34.5,36.56
209.811958,-0.04,0.19,-9.75,0.0,0.0,0.0,24.5,34.06,35.37
209.831952,0.06,0.0,-9.86,0.0,0.0,0.0,24.5,34.06,35.37
209.855954,0.03,-0.08,-9.83,0.0,0.0,0.0,24.5,34.06,35.37
209.875946,-0.13,0.01,-9.81,0.0,0.0,0.0,24.5,34.87,36.06
209.899921,-0.15,0.18,-9.69,0.0,0.0,0.0,24.5,34.87,36.06
209.923909,-0.07,0.21,-9.77,0.0,0.0,0.0,24.5,34.06,36.56
209.943955,0.04,0.09,-9.82,0.0,0.0,0.0,24.5,34.06,36.56
209.967916,0.01,0.02,-9.84,0.0,0.0,0.0,24.5,34.06,36.56
209.991954,-0.11,0.01,-9.74,0.0,0.0,0.0,24.5,34.87,35.68
210.01197,-0.17,0.02,-9.78,0.0,0.0,0.0,24.5,34.87,35.68
210.035902,-0.12,0.06,-9.71,0.0,0.0,0.0,24.5,34.5,37.68
210.05584,-0.04,0.12,-9.84,0.0,0.0,0.0,24.5,34.5,37.68
210.079967,0.08,0.11,-9.75,0.0,0.0,0.0,24.5,34.5,37.68
210.103957,-0.14,0.02,-9.77,0.0,0.0,0.0,24.18,34.06,36.87
210.123841,0.01,0.04,-9.84,0.0,0.0,0.0,24.18,34.06,36.87
210.147959,0.07,0.08,-9.77,0.0,0.0,0.0,24.87,34.5,36.06
210.171856,-0.03,0.12,-9.82,0.0,0.0,0.0,24.87,34.5,36.06
210.191913,-0.14,0.11,-9.72,0.0,0.0,0.0,24.18,34.5,37.68
210.215951,-0.13,0.06,-9.8,0.0,0.0,0.0,24.18,34.5,37.68
210.239945,-0.02,0.08,-9.77,0.0,0.0,0.0,24.18,34.5,37.68
210.259873,0.0,0.07,-9.8,0.0,0.0,0.0,24.5,34.5,35.37
210.283818,-0.03,0.07,-9.8,0.0,0.0,0.0,24.5,34.5,35.37
210.303827,-0.08,0.07,-9.75,0.0,0.0,0.0,23.75,34.5,37.37
210.327873,-0.12,0.09,-9.77,0.0,0.0,0.0,23.75,34.5,37.37
210.351827,-0.11,0.1,-9.76,0.0,0.0,0.0,23.75,34.5,37.37
210.371819,0.01,0.08,-9.76,0.0,0.0,0.0,24.87,34.5,36.06
210.395715,0.02,0.1,-9.82,0.0,0.0,0.0,24.87,34.5,36.06
210.419903,-0.04,0.07,-9.76,0.0,0.0,0.0,24.18,34.87,37.68
210.439948,-0.11,0.05,-9.78,0.0,0.0,0.0,24.18,34.87,37.68
210.463959,-0.11,0.06,-9.74,0.0,0.0,0.0,24.18,34.87,37.68
210.483915,-0.06,0.03,-9.77,0.0,0.0,0.0,23.75,34.87,35.68
210.507954,-0.02,0.06,-9.76,0.0,0.0,0.0,23.75,34.87,35.68
210.531974,-0.05,0.09,-9.8,0.0,0.0,0.0,24.87,34.5,35.68
210.551877,-0.08,0.09,-9.8,0.0,0.0,0.0,24.87,34.5,35.68
210.575869,-0.03,0.1,-9.74,0.0,0.0,0.0,24.87,34.5,35.68
210.599854,0.0,0.05,-9.78,0.0,0.0,0.0,24.5,33.68,35.68
210.619906,-0.02,0.09,-9.77,0.0,0.0,0.0,24.5,33.68,35.68
210.643959,-0.05,0.04,-9.77,0.0,0.0,0.0,24.18,35.18,36.56
210.66396,-0.12,0.01,-9.77,0.0,0.0,0.0,24.18,35.18,36.56
210.687769,-0.09,0.01,-9.77,0.0,0.0,0.0,24.87,35.18,36.06
210.711951,-0.02,0.11,-9.78,0.0,0.0,0.0,24.87,35.18,36.06
210.731946,0.02,0.14,-9.78,0.0,0.0,0.0,24.87,35.18,36.06
210.755877,0.0,0.12,-9.8,0.0,0.0,0.0,24.5,34.5,36.06
210.779744,-0.03,0.07,-9.77,0.0,0.0,0.0,24.5,34.5,36.06
210.799848,-0.1,0.0,-9.77,0.0,0.0,0.0,24.18,34.5,35.68
210.823859,-0.11,0.0,-9.77,0.0,0.0,0.0,24.18,34.5,35.68
210.843875,-0.07,0.05,-9.77,0.0,0.0,0.0,24.18,34.5,35.68
210.867831,0.0,0.13,-9.8,0.0,0.0,0.0,24.5,34.06,37.37
210.891898,0.0,0.11,-9.8,0.0,0.0,0.0,24.5,34.06,37.37
210.911862,-0.09,0.11,-9.76,0.0,0.0,0.0,24.18,34.5,36.56
210.935817,-0.11,0.07,-9.75,0.0,0.0,0.0,24.18,34.5,36.56
210.959975,-0.12,0.07,-9.77,0.0,0.0,0.0,24.18,34.5,36.56
210.979947,-0.06,0.03,-9.78,0.0,0.0,0.0,24.5,33.68,36.06
211.003914,0.1,0.14,-9.73,0.0,0.0,0.0,24.5,33.68,36.06
211.023951,0.03,0.16,-9.86,0.0,0.0,0.0,24.18,33.68,35.68
211.04796,-0.1,0.06,-9.65,0.0,0.0,0.0,24.18,33.68,35.68
211.071779,-0.16,0.01,-9.86,0.0,0.0,0.0,24.18,33.68,35.68
211.091795,-0.07,0.0,-9.69,0.0,0.0,0.0,24.5,34.87,35.37
211.115874,-0.02,0.07,-9.88,0.0,0.0,0.0,24.5,34.87,35.37
211.139882,0.01,0.08,-9.69,0.0,0.0,0.0,24.5,34.87,36.87
211.159866,-0.09,0.12,-9.85,0.0,0.0,0.0,24.5,34.87,36.87
211.183827,0.02,0.04,-9.86,0.0,0.0,0.0,24.18,34.87,34.87
211.203782,-0.04,0.09,-9.74,0.0,0.0,0.0,24.18,34.87,34.87
211.227834,-0.12,0.11,-9.8,0.0,0.0,0.0,24.18,34.87,34.87
211.251834,-0.07,0.11,-9.72,0.0,0.0,0.0,24.18,34.06,35.68
211.271832,-0.05,0.1,-9.83,0.0,0.0,0.0,24.18,34.06,35.68
211.295826,0.01,0.02,-9.78,0.0,0.0,0.0,23.75,34.06,35.68
211.319826,-0.04,0.02,-9.83,0.0,0.0,0.0,23.75,34.06,35.68
211.339875,-0.11,0.1,-9.74,0.0,0.0,0.0,23.75,34.06,35.68
211.363876,-0.12,0.11,-9.75,0.0,0.0,0.0,24.5,34.5,36.06
211.383829,-0.02,0.1,-9.76,0.0,0.0,0.0,24.5,34.5,36.06
211.407884,0.03,0.11,-9.84,0.0,0.0,0.0,24.87,34.87,36.87
211.431868,0.02,0.06,-9.77,0.0,0.0,0.0,24.87,34.87,36.87
211.451834,-0.12,0.09,-9.78,0.0,0.0,0.0,24.87,34.87,36.87
211.475879,-0.17,0.03,-9.74,0.0,0.0,0.0,24.5,34.06,35.37
211.49983,-0.11,0.03,-9.78,0.0,0.0,0.0,24.5,34.06,35.37
211.519831,-0.02,0.04,-9.77,0.0,0.0,0.0,23.75,34.87,36.06
211.543783,0.05,0.1,-9.83,0.0,0.0,0.0,23.75,34.87,36.06
211.56391,0.0,0.14,-9.77,0.0,0.0,0.0,23.75,34.87,36.06
211.58793,-0.1,0.1,-9.77,0.0,0.0,0.0,24.5,34.87,35.68
211.611872,-0.14,0.05,-9.76,0.0,0.0,0.0,24.5,34.87,35.68
211.63187,-0.1,0.04,-9.77,0.0,0.0,0.0,24.5,34.5,36.56
211.655838,0.0,0.07,-9.78,0.0,0.0,0.0,24.5,34.5,36.56
211.679975,0.01,0.11,-9.8,0.0,0.0,0.0,24.5,34.5,36.56
211.699934,-0.03,0.13,-9.77,0.0,0.0,0.0,24.5,34.87,35.37
211.723945,-0.07,0.05,-9.77,0.0,0.0,0.0,24.5,34.06,36.56
211.747962,-0.06,0.04,-9.78,0.0,0.0,0.0,24.87,34.5,36.87
211.767927,-0.06,0.1,-9.76,0.0,0.0,0.0,24.87,34.5,36.87
211.791922,-0.06,0.09,-9.76,0.0,0.0,0.0,24.87,34.5,36.06
211.811957,-0.05,0.07,-9.76,0.0,0.0,0.0,24.87,34.5,36.06
211.835913,-0.06,0.1,-9.8,0.0,0.0,0.0,24.87,34.5,36.06
211.859923,-0.06,0.08,-9.77,0.0,0.0,0.0,23.75,34.5,35.68
211.879905,-0.05,0.05,-9.78,0.0,0.0,0.0,23.75,34.5,35.68
211.903903,-0.03,0.03,-9.77,0.0,0.0,0.0,24.18,34.06,36.06
211.92792,-0.06,0.09,-9.78,0.0,0.0,0.0,24.18,34.06,36.06
211.94792,-0.08,0.11,-9.75,0.0,0.0,0.0,24.18,34.06,36.06
211.971913,-0.05,0.11,-9.77,0.0,0.0,0.0,24.5,33.37,34.87
211.991919,-0.04,0.06,-9.77,0.0,0.0,0.0,24.5,33.37,34.87
212.015912,-0.04,0.03,-9.78,0.0,0.0,0.0,24.87,34.06,36.06
212.039926,-0.06,0.07,-9.77,0.0,0.0,0.0,24.87,34.06,36.06
212.059875,-0.08,0.09,-9.77,0.0,0.0,0.0,24.87,34.06,36.06
212.083966,-0.06,0.09,-9.76,0.0,0.0,0.0,24.5,34.5,36.56
212.107924,-0.02,0.07,-9.77,0.0,0.0,0.0,24.5,34.5,36.56
212.127929,-0.05,0.06,-9.77,0.0,0.0,0.0,23.37,34.87,36.06
212.15192,-0.05,0.06,-9.78,0.0,0.0,0.0,23.37,34.87,36.06
212.17192,-0.08,0.06,-9.75,0.0,0.0,0.0,23.37,34.87,36.06
212.19591,-0.05,0.04,-9.76,0.0,0.0,0.0,24.5,34.5,36.56
212.219924,-0.02,0.06,-9.76,0.0,0.0,0.0,24.5,34.5,36.56
212.239915,-0.03,0.06,-9.77,0.0,0.0,0.0,24.5,34.06,36.56
212.263922,-0.07,0.05,-9.76,0.0,0.0,0.0,24.5,34.87,36.56
212.287784,-0.05,0.07,-9.77,0.0,0.0,0.0,23.75,34.06,36.56
212.307914,-0.05,0.09,-9.78,0.0,0.0,0.0,23.75,34.06,36.56
212.331925,-0.04,0.09,-9.77,0.0,0.0,0.0,23.75,34.06,36.56
212.351915,-0.06,0.08,-9.73,0.0,0.0,0.0,24.5,33.68,35.68
212.375917,-0.07,0.07,-9.78,0.0,0.0,0.0,24.5,33.68,35.68
212.399914,-0.07,0.06,-9.74,0.0,0.0,0.0,24.87,33.68,36.06
212.419917,-0.05,0.07,-9.77,0.0,0.0,0.0,24.87,33.68,36.06
212.443918,-0.05,0.11,-9.77,0.0,0.0,0.0,24.87,33.68,36.06
212.487511,-0.04,0.1,-9.77,0.0,0.0,0.0,24.5,34.5,35.68
212.511558,-0.05,0.08,-9.76,0.0,0.0,0.0,24.5,34.5,35.68
212.531571,-0.05,0.07,-9.77,0.0,0.0,0.0,24.5,34.5,36.56
212.555401,-0.07,0.03,-9.77,0.0,0.0,0.0,24.5,34.5,36.56
212.579593,-0.08,0.06,-9.76,0.0,0.0,0.0,24.5,34.5,36.56
212.599555,-0.05,0.08,-9.77,0.0,0.0,0.0,23.37,34.87,35.37
212.623572,-0.05,0.06,-9.77,0.0,0.0,0.0,23.75,34.5,36.06
212.647566,-0.06,0.06,-9.77,0.0,0.0,0.0,24.18,34.06,35.68
212.667291,-0.04,0.09,-9.78,0.0,0.0,0.0,24.18,34.06,35.68
212.691676,-0.05,0.07,-9.78,0.0,0.0,0.0,24.5,34.5,37.37
212.723727,-0.07,0.04,-9.8,0.0,0.0,0.0,24.5,34.5,37.37
212.747736,-0.09,0.09,-9.78,0.0,0.0,0.0,24.5,34.5,37.37
212.771702,-0.05,0.07,-9.76,0.0,0.0,0.0,23.75,34.87,35.37
212.791695,-0.03,0.07,-9.78,0.0,0.0,0.0,23.75,34.87,35.37
212.815686,-0.03,0.05,-9.76,0.0,0.0,0.0,23.37,34.06,34.56
212.835695,-0.08,0.04,-9.83,0.0,0.0,0.0,23.37,34.06,34.56
212.85982,-0.08,0.05,-9.75,0.0,0.0,0.0,23.37,34.06,34.56
212.88379,-0.04,0.07,-9.8,0.0,0.0,0.0,24.18,34.06,36.06
212.903769,-0.03,0.09,-9.78,0.0,0.0,0.0,24.18,34.06,36.06
212.927822,-0.05,0.08,-9.77,0.0,0.0,0.0,23.75,34.87,36.56
212.951782,-0.02,0.05,-9.8,0.0,0.0,0.0,23.75,34.87,36.56
212.97183,-0.06,0.06,-9.77,0.0,0.0,0.0,23.75,34.87,36.56
212.995825,-0.07,0.05,-9.76,0.0,0.0,0.0,24.5,33.68,36.06
213.015775,-0.06,0.08,-9.77,0.0,0.0,0.0,24.5,33.68,36.06
213.039821,-0.05,0.08,-9.75,0.0,0.0,0.0,24.5,34.06,37.37
213.063825,-0.07,0.08,-9.77,0.0,0.0,0.0,24.5,34.5,36.06
213.083777,-0.04,0.08,-9.77,0.0,0.0,0.0,23.37,34.5,35.37
213.107819,-0.04,0.07,-9.78,0.0,0.0,0.0,23.37,34.5,35.37
213.131829,-0.05,0.09,-9.75,0.0,0.0,0.0,23.37,34.5,35.37
213.152445,-0.06,0.06,-9.77,0.0,0.0,0.0,24.87,34.87,36.06
213.175926,-0.04,0.09,-9.76,0.0,0.0,0.0,24.87,34.87,36.06
213.195767,-0.06,0.06,-9.76,0.0,0.0,0.0,24.5,34.5,36.56
213.219845,-0.07,0.07,-9.77,0.0,0.0,0.0,24.5,34.5,36.56
213.243881,-0.06,0.07,-9.77,0.0,0.0,0.0,24.5,34.5,36.56
213.263853,-0.08,0.06,-9.8,0.0,0.0,0.0,24.87,34.06,35.68
213.287844,-0.04,0.07,-9.77,0.0,0.0,0.0,24.87,34.06,35.68
213.311867,-0.07,0.04,-9.75,0.0,0.0,0.0,24.5,33.68,36.06
213.331856,-0.06,0.04,-9.77,0.0,0.0,0.0,24.5,33.68,36.06
213.355726,-0.08,0.08,-9.78,0.0,0.0,0.0,24.5,33.68,36.06
213.375706,-0.05,0.12,-9.76,0.0,0.0,0.0,24.18,33.68,35.37
213.399737,-0.05,0.09,-9.77,0.0,0.0,0.0,24.18,33.68,35.37
213.423768,-0.04,0.02,-9.81,0.0,0.0,0.0,24.18,34.5,36.06
213.443769,-0.06,0.04,-9.81,0.0,0.0,0.0,24.18,34.5,36.06
213.467729,-0.08,0.06,-9.77,0.0,0.0,0.0,24.18,34.5,36.06
213.491723,-0.07,0.12,-9.76,0.0,0.0,0.0,24.5,34.87,36.06
213.511762,-0.05,0.12,-9.78,0.0,0.0,0.0,24.5,34.87,36.06
213.535767,-0.01,0.06,-9.77,0.0,0.0,0.0,23.75,33.68,36.87
213.55579,-0.04,0.02,-9.8,0.0,0.0,0.0,23.75,33.68,36.87
213.579759,-0.03,0.02,-9.81,0.0,0.0,0.0,23.75,33.68,36.87
213.603748,-0.04,0.06,-9.78,0.0,0.0,0.0,24.87,34.06,34.87
213.623704,-0.04,0.06,-9.77,0.0,0.0,0.0,24.87,34.06,34.87
213.64777,-0.03,0.08,-9.78,0.0,0.0,0.0,24.5,34.06,36.87
213.671745,-0.04,0.13,-9.77,0.0,0.0,0.0,24.5,34.06,36.87
213.691766,-0.06,0.11,-9.77,0.0,0.0,0.0,24.18,33.68,35.68
213.715823,-0.07,0.04,-9.77,0.0,0.0,0.0,24.18,33.68,35.68
213.735724,-0.1,0.0,-9.78,0.0,0.0,0.0,24.18,33.68,35.68
213.759733,-0.09,0.0,-9.77,0.0,0.0,0.0,24.18,33.37,36.87
213.783826,-0.05,0.08,-9.81,0.0,0.0,0.0,24.18,33.37,36.87
213.803764,0.0,0.15,-9.77,0.0,0.0,0.0,24.87,34.87,36.06
213.827768,-0.01,0.13,-9.8,0.0,0.0,0.0,24.87,34.87,36.06
213.851733,-0.06,0.06,-9.77,0.0,0.0,0.0,24.87,34.87,36.06
213.871761,-0.08,0.03,-9.77,0.0,0.0,0.0,24.87,34.5,36.56
213.895862,-0.09,0.02,-9.77,0.0,0.0,0.0,24.87,34.5,36.56
213.919837,-0.07,0.07,-9.76,0.0,0.0,0.0,24.5,34.06,35.68
213.951809,-0.07,0.12,-9.78,0.0,0.0,0.0,24.5,34.06,35.68
213.975859,-0.06,0.09,-9.77,0.0,0.0,0.0,24.5,34.06,35.68
213.995795,-0.06,0.06,-9.75,0.0,0.0,0.0,24.5,34.5,36.56
214.019665,-0.04,0.05,-9.77,0.0,0.0,0.0,24.5,34.5,36.56
214.039748,-0.06,0.07,-9.77,0.0,0.0,0.0,24.18,34.5,37.37
214.063777,-0.05,0.07,-9.73,0.0,0.0,0.0,23.37,34.5,36.87
214.087783,-0.05,0.08,-9.8,0.0,0.0,0.0,24.87,34.5,36.56
214.107783,-0.04,0.05,-9.8,0.0,0.0,0.0,24.87,34.5,36.56
214.131796,-0.06,0.06,-9.74,0.0,0.0,0.0,24.87,34.87,36.06
214.155652,-0.05,0.03,-9.82,0.0,0.0,0.0,24.87,34.87,36.06
214.17538,-0.04,0.05,-9.77,0.0,0.0,0.0,24.87,34.87,36.06
214.199634,-0.04,0.11,-9.77,0.0,0.0,0.0,24.5,34.06,36.56
214.219648,-0.04,0.11,-9.76,0.0,0.0,0.0,24.5,34.06,36.56
214.243702,-0.04,0.07,-9.78,0.0,0.0,0.0,24.87,33.37,36.56
214.267745,-0.04,0.04,-9.75,0.0,0.0,0.0,24.87,33.37,36.56
214.287751,-0.08,0.05,-9.78,0.0,0.0,0.0,24.87,33.37,36.56
214.311729,-0.07,0.04,-9.74,0.0,0.0,0.0,24.5,34.5,36.56
214.335799,-0.03,0.09,-9.8,0.0,0.0,0.0,24.5,34.5,36.56
214.355794,-0.01,0.07,-9.73,0.0,0.0,0.0,24.18,33.68,36.06
214.379921,-0.03,0.07,-9.77,0.0,0.0,0.0,24.18,33.68,36.06
214.399869,-0.07,0.07,-9.77,0.0,0.0,0.0,24.18,33.68,36.06
214.42393,-0.07,0.08,-9.74,0.0,0.0,0.0,23.75,33.68,37.68
214.447945,-0.05,0.06,-9.8,0.0,0.0,0.0,23.75,33.68,37.68
214.467894,-0.05,0.07,-9.77,0.0,0.0,0.0,23.75,34.5,36.56
214.491922,-0.06,0.06,-9.77,0.0,0.0,0.0,23.75,34.5,36.56
214.515916,-0.06,0.08,-9.77,0.0,0.0,0.0,23.75,34.5,36.56
214.53599,-0.08,0.06,-9.77,0.0,0.0,0.0,24.87,34.06,36.87
214.559688,-0.07,0.07,-9.81,0.0,0.0,0.0,24.87,34.06,36.87
214.583682,-0.05,0.06,-9.78,0.0,0.0,0.0,24.18,33.37,35.68
214.60369,-0.01,0.09,-9.78,0.0,0.0,0.0,24.18,34.5,36.87
214.62747,-0.07,0.05,-9.81,0.0,0.0,0.0,24.87,34.06,36.87
214.647102,-0.06,0.04,-9.76,0.0,0.0,0.0,24.87,34.06,36.87
214.671424,-0.07,0.07,-9.77,0.0,0.0,0.0,24.87,34.06,36.87
214.695599,-0.05,0.03,-9.78,0.0,0.0,0.0,23.75,35.18,36.87
214.715688,-0.05,0.08,-9.84,0.0,0.0,0.0,23.75,35.18,36.87
214.73976,-0.05,0.07,-9.76,0.0,0.0,0.0,24.5,34.06,36.06
214.771735,-0.05,0.09,-9.76,0.0,0.0,0.0,24.5,34.06,36.06
214.795705,-0.05,0.06,-9.77,0.0,0.0,0.0,24.5,34.06,36.06
214.819798,-0.08,0.06,-9.77,0.0,0.0,0.0,24.18,34.5,36.06
214.839871,-0.09,0.02,-9.76,0.0,0.0,0.0,24.18,34.5,36.06
214.863899,-0.08,0.07,-9.78,0.0,0.0,0.0,24.5,34.87,35.37
214.883889,-0.03,0.11,-9.74,0.0,0.0,0.0,24.5,34.87,35.37
214.907872,-0.04,0.12,-9.77,0.0,0.0,0.0,24.5,34.87,35.37
214.931875,-0.04,0.07,-9.74,0.0,0.0,0.0,24.18,34.06,35.68
214.963891,-0.09,0.04,-9.8,0.0,0.0,0.0,24.18,34.06,35.68
214.987909,-0.05,0.02,-9.78,0.0,0.0,0.0,24.18,34.06,36.56
215.007736,-0.07,0.06,-9.82,0.0,0.0,0.0,24.18,34.06,36.56
215.031731,-0.06,0.09,-9.74,0.0,0.0,0.0,24.18,34.06,36.56
215.055753,-0.02,0.05,-9.77,0.0,0.0,0.0,24.5,33.37,35.37
215.075733,-0.09,0.08,-9.82,0.0,0.0,0.0,24.5,33.37,35.37
215.099735,-0.09,0.07,-9.76,0.0,0.0,0.0,24.18,34.5,36.56
215.123744,-0.08,0.08,-9.8,0.0,0.0,0.0,24.18,34.5,36.56
215.143735,-0.01,0.07,-9.77,0.0,0.0,0.0,24.5,33.68,36.18
215.167721,-0.01,0.1,-9.81,0.0,0.0,0.0,24.5,33.68,36.18
215.18766,-0.04,0.08,-9.77,0.0,0.0,0.0,24.5,33.68,36.18
215.211762,-0.06,0.05,-9.77,0.0,0.0,0.0,24.87,33.37,36.06
215.235734,-0.08,0.06,-9.77,0.0,0.0,0.0,24.87,33.37,36.06
215.255787,-0.07,0.04,-9.77,0.0,0.0,0.0,24.5,33.68,36.87
215.279769,-0.04,0.04,-9.83,0.0,0.0,0.0,24.5,33.68,36.87
215.30398,-0.05,0.05,-9.83,0.0,0.0,0.0,24.5,33.68,36.87
215.32381,-0.05,0.04,-9.8,0.0,0.0,0.0,24.5,34.5,35.68
215.347802,-0.05,0.06,-9.77,0.0,0.0,0.0,24.5,34.5,35.68
215.371811,-0.08,0.06,-9.77,0.0,0.0,0.0,24.5,34.5,36.06
215.391802,-0.06,0.08,-9.76,0.0,0.0,0.0,24.5,34.5,36.06
215.415771,-0.05,0.1,-9.77,0.0,0.0,0.0,24.5,34.5,36.06
215.435755,-0.05,0.11,-9.77,0.0,0.0,0.0,24.5,34.5,36.87
215.4598,-0.11,0.06,-9.72,0.0,0.0,0.0,24.5,34.5,36.87
215.483778,-0.05,0.06,-9.77,0.0,0.0,0.0,24.87,34.06,36.87
215.503802,-0.08,0.06,-9.76,0.0,0.0,0.0,24.87,34.06,35.37
215.527809,-0.07,0.04,-9.77,0.0,0.0,0.0,24.18,34.06,37.37
215.551795,-0.05,0.04,-9.78,0.0,0.0,0.0,24.18,34.06,37.37
215.571961,-0.03,0.11,-9.75,0.0,0.0,0.0,24.18,34.06,37.37
215.595946,-0.06,0.07,-9.75,0.0,0.0,0.0,23.75,34.87,36.56
215.615815,-0.07,0.11,-9.75,0.0,0.0,0.0,23.75,34.87,36.56
215.639948,-0.07,0.06,-9.77,0.0,0.0,0.0,24.5,34.06,35.68
215.663732,-0.04,0.01,-9.77,0.0,0.0,0.0,24.5,34.06,35.68
215.683878,-0.03,0.04,-9.83,0.0,0.0,0.0,24.5,34.06,35.68
215.707879,-0.03,0.09,-9.82,0.0,0.0,0.0,24.5,34.87,35.68
215.731876,-0.06,0.12,-9.76,0.0,0.0,0.0,24.5,34.87,35.68
215.751819,-0.08,0.13,-9.76,0.0,0.0,0.0,24.87,34.06,36.87
215.775711,-0.05,0.06,-9.77,0.0,0.0,0.0,24.87,34.06,36.87
215.795818,-0.04,0.01,-9.78,0.0,0.0,0.0,24.87,34.06,36.87
215.819658,-0.03,0.02,-9.82,0.0,0.0,0.0,24.18,34.5,36.06
215.843713,-0.09,0.05,-9.73,0.0,0.0,0.0,24.18,34.5,36.06
215.863806,-0.12,0.09,-9.74,0.0,0.0,0.0,24.18,34.06,36.87
215.887833,-0.07,0.09,-9.78,0.0,0.0,0.0,24.18,34.06,36.87
215.911816,0.0,0.05,-9.81,0.0,0.0,0.0,24.18,34.06,36.87
215.931792,0.0,0.06,-9.77,0.0,0.0,0.0,24.5,34.06,35.68
215.955819,-0.07,0.09,-9.78,0.0,0.0,0.0,24.5,34.06,35.68
215.975808,-0.1,0.11,-9.77,0.0,0.0,0.0,24.18,34.06,35.68
215.99964,-0.08,0.08,-9.77,0.0,0.0,0.0,24.18,34.06,35.68
216.022904,-0.01,0.02,-9.84,0.0,0.0,0.0,24.18,34.06,35.68
216.043541,-0.01,0.1,-9.81,0.0,0.0,0.0,23.37,33.68,36.06
216.067744,0.02,0.07,-9.84,0.0,0.0,0.0,23.37,33.68,36.06
216.091764,-0.03,0.04,-9.8,0.0,0.0,0.0,24.5,34.06,36.87
216.111761,-0.13,0.04,-9.75,0.0,0.0,0.0,24.5,34.06,36.87
216.135732,-0.12,0.07,-9.73,0.0,0.0,0.0,24.5,34.5,36.56
216.15574,-0.03,0.09,-9.81,0.0,0.0,0.0,24.5,34.5,36.56
216.179747,0.01,0.05,-9.78,0.0,0.0,0.0,24.5,34.5,36.56
216.20372,-0.02,0.07,-9.78,0.0,0.0,0.0,24.18,34.5,35.68
216.223863,-0.09,0.06,-9.76,0.0,0.0,0.0,24.18,34.5,35.68
216.247977,-0.11,0.06,-9.77,0.0,0.0,0.0,24.5,34.5,36.06
216.271876,-0.07,0.07,-9.78,0.0,0.0,0.0,24.5,34.5,36.06
216.291851,0.0,0.08,-9.77,0.0,0.0,0.0,24.5,34.5,36.06
216.315831,0.0,0.08,-9.8,0.0,0.0,0.0,24.18,35.18,36.06
216.335825,-0.03,0.08,-9.78,0.0,0.0,0.0,24.18,35.18,36.06
216.359834,-0.08,0.08,-9.74,0.0,0.0,0.0,24.18,33.68,36.06
216.383827,-0.08,0.05,-9.8,0.0,0.0,0.0,24.18,33.68,36.06
216.40381,-0.02,0.07,-9.75,0.0,0.0,0.0,24.18,33.68,36.06
216.427823,-0.01,0.08,-9.8,0.0,0.0,0.0,24.5,34.5,36.06
216.451818,-0.07,0.07,-9.75,0.0,0.0,0.0,24.5,34.5,36.06
216.471889,-0.09,0.05,-9.78,0.0,0.0,0.0,24.18,34.5,35.68
216.495854,-0.09,0.06,-9.77,0.0,0.0,0.0,24.18,34.5,35.68
216.515825,-0.04,0.08,-9.85,0.0,0.0,0.0,24.18,34.5,35.68
216.539859,0.0,0.1,-9.77,0.0,0.0,0.0,24.18,34.5,36.06
216.563865,-0.02,0.15,-9.78,0.0,0.0,0.0,24.18,34.5,36.06
216.583812,-0.06,0.03,-9.81,0.0,0.0,0.0,24.5,34.5,36.56
216.606871,-0.02,0.04,-9.8,0.0,0.0,0.0,24.5,34.5,36.56
216.631355,-0.05,0.1,-9.77,0.0,0.0,0.0,24.18,34.5,36.87
216.651684,-0.06,0.11,-9.77,0.0,0.0,0.0,24.18,34.5,36.87
216.675726,-0.06,0.05,-9.73,0.0,0.0,0.0,24.18,34.5,36.87
216.699717,-0.05,0.03,-9.82,0.0,0.0,0.0,24.18,34.87,35.37
216.719772,-0.05,0.07,-9.77,0.0,0.0,0.0,24.18,34.87,35.37
216.743749,-0.03,0.12,-9.77,0.0,0.0,0.0,24.87,34.06,34.87
216.763759,-0.06,0.09,-9.77,0.0,0.0,0.0,24.87,34.06,34.87
216.787767,-0.06,0.01,-9.78,0.0,0.0,0.0,24.87,34.06,34.87
216.811759,-0.08,0.04,-9.77,0.0,0.0,0.0,24.18,34.06,34.87
216.831809,-0.06,0.07,-9.78,0.0,0.0,0.0,24.18,34.06,34.87
216.855858,-0.03,0.12,-9.75,0.0,0.0,0.0,24.18,34.87,35.37
216.879854,-0.02,0.11,-9.77,0.0,0.0,0.0,24.18,34.87,35.37
216.899817,-0.04,0.07,-9.77,0.0,0.0,0.0,24.18,34.87,35.37
216.92382,-0.07,0.03,-9.78,0.0,0.0,0.0,24.18,34.5,35.68
216.943809,-0.08,0.05,-9.77,0.0,0.0,0.0,24.18,34.5,35.68
216.967811,-0.06,0.07,-9.74,0.0,0.0,0.0,23.75,35.18,35.68
216.991768,-0.02,0.11,-9.82,0.0,0.0,0.0,23.75,35.18,35.68
217.011821,-0.04,0.11,-9.77,0.0,0.0,0.0,23.75,35.18,35.68
217.035811,-0.05,0.06,-9.76,0.0,0.0,0.0,24.5,33.68,36.87
217.059862,-0.06,0.05,-9.76,0.0,0.0,0.0,24.5,33.68,36.87
217.079861,-0.04,0.06,-9.77,0.0,0.0,0.0,23.75,34.5,36.06
217.103664,-0.04,0.07,-9.77,0.0,0.0,0.0,23.75,34.5,36.06
217.128184,-0.05,0.05,-9.77,0.0,0.0,0.0,24.87,34.87,36.56
217.147567,-0.03,0.07,-9.8,0.0,0.0,0.0,24.87,34.87,36.56
217.171639,-0.03,0.07,-9.83,0.0,0.0,0.0,24.87,34.87,36.56
217.191651,-0.04,0.06,-9.77,0.0,0.0,0.0,24.87,34.87,34.56
217.215715,-0.1,0.07,-9.76,0.0,0.0,0.0,24.87,34.87,34.56
217.239658,-0.1,0.05,-9.77,0.0,0.0,0.0,24.5,34.87,36.56
217.259725,-0.06,0.03,-9.77,0.0,0.0,0.0,24.5,34.87,36.56
217.283818,-0.03,0.06,-9.77,0.0,0.0,0.0,24.5,34.87,36.56
217.303812,-0.04,0.08,-9.77,0.0,0.0,0.0,24.5,34.5,36.06
217.32781,-0.06,0.11,-9.77,0.0,0.0,0.0,24.5,34.5,36.06
217.351832,-0.07,0.09,-9.75,0.0,0.0,0.0,24.5,34.5,37.68
217.37185,-0.08,0.07,-9.8,0.0,0.0,0.0,24.5,34.5,37.68
217.395814,-0.06,0.04,-9.77,0.0,0.0,0.0,24.5,34.5,37.68
217.419833,-0.05,0.1,-9.77,0.0,0.0,0.0,24.18,34.5,34.87
217.439814,-0.03,0.11,-9.77,0.0,0.0,0.0,24.18,34.5,34.87
217.463825,-0.04,0.11,-9.76,0.0,0.0,0.0,24.87,34.5,37.68
217.483817,-0.06,0.03,-9.8,0.0,0.0,0.0,24.87,34.5,37.68
217.50763,-0.06,0.01,-9.77,0.0,0.0,0.0,24.87,34.5,37.68
217.531812,-0.06,0.06,-9.78,0.0,0.0,0.0,23.75,34.87,35.68
217.551819,-0.04,0.07,-9.78,0.0,0.0,0.0,23.75,34.87,35.68
217.575816,-0.07,0.09,-9.78,0.0,0.0,0.0,24.87,34.5,36.56
217.599913,-0.03,0.09,-9.78,0.0,0.0,0.0,24.87,34.5,36.56
217.619843,-0.04,0.09,-9.77,0.0,0.0,0.0,24.87,34.5,36.56
217.643749,-0.03,0.05,-9.77,0.0,0.0,0.0,24.5,34.87,35.68
217.663754,-0.07,0.07,-9.77,0.0,0.0,0.0,23.75,35.56,35.68
217.6878,-0.07,0.06,-9.76,0.0,0.0,0.0,23.75,33.68,35.37
217.71176,-0.05,0.06,-9.77,0.0,0.0,0.0,23.75,33.68,35.37
217.731855,-0.05,0.04,-9.76,0.0,0.0,0.0,24.18,35.18,36.06
217.755864,-0.08,0.08,-9.8,0.0,0.0,0.0,24.18,35.18,36.06
217.779882,-0.04,0.12,-9.77,0.0,0.0,0.0,24.18,35.18,36.06
217.799927,-0.07,0.08,-9.77,0.0,0.0,0.0,25.25,34.5,35.37
217.823874,-0.05,0.07,-9.77,0.0,0.0,0.0,25.25,34.5,35.37
217.843892,-0.05,0.06,-9.77,0.0,0.0,0.0,24.87,33.68,37.37
217.867839,-0.04,0.06,-9.81,0.0,0.0,0.0,24.87,33.68,37.37
217.89185,-0.05,0.1,-9.82,0.0,0.0,0.0,24.87,33.68,37.37
217.911886,-0.07,0.07,-9.76,0.0,0.0,0.0,24.87,35.18,35.68
217.935837,-0.03,0.08,-9.82,0.0,0.0,0.0,24.87,35.18,35.68
217.959894,-0.03,0.03,-9.76,0.0,0.0,0.0,24.87,33.68,36.87
217.97989,-0.05,0.07,-9.78,0.0,0.0,0.0,24.87,33.68,36.87
218.003876,-0.06,0.08,-9.75,0.0,0.0,0.0,24.87,33.68,36.87
218.023876,-0.04,0.12,-9.78,0.0,0.0,0.0,24.18,34.5,34.87
218.047884,-0.02,0.09,-9.77,0.0,0.0,0.0,24.18,34.5,34.87
218.071888,-0.03,0.07,-9.77,0.0,0.0,0.0,24.5,33.68,36.06
218.091835,-0.07,0.05,-9.77,0.0,0.0,0.0,24.5,33.68,36.06
218.115853,-0.08,0.03,-9.77,0.0,0.0,0.0,24.5,33.68,36.06
218.139884,-0.09,0.05,-9.76,0.0,0.0,0.0,24.18,34.06,36.56
218.15981,-0.05,0.09,-9.77,0.0,0.0,0.0,24.18,34.06,36.56
218.183548,-0.04,0.09,-9.76,0.0,0.0,0.0,24.87,34.5,36.56
218.203815,-0.04,0.1,-9.71,0.0,0.0,0.0,24.18,34.5,35.68
218.227776,-0.03,0.08,-9.82,0.0,0.0,0.0,24.18,34.5,36.56
218.251706,-0.02,0.02,-9.77,0.0,0.0,0.0,24.18,34.5,36.56
218.271736,-0.1,0.02,-9.85,0.0,0.0,0.0,24.18,34.5,36.56
218.295786,-0.09,0.03,-9.72,0.0,0.0,0.0,24.5,34.5,36.56
218.319741,-0.09,0.1,-9.82,0.0,0.0,0.0,24.5,34.5,36.56
218.33988,-0.03,0.11,-9.71,0.0,0.0,0.0,24.5,34.5,36.56
218.363877,-0.02,0.08,-9.83,0.0,0.0,0.0,24.5,34.5,36.56
218.387909,-0.01,0.02,-9.75,0.0,0.0,0.0,24.5,34.5,36.56
218.407879,-0.08,0.0,-9.82,0.0,0.0,0.0,24.18,34.06,36.06
218.431856,-0.09,0.04,-9.69,0.0,0.0,0.0,24.18,34.06,36.06
218.451838,-0.07,0.08,-9.81,0.0,0.0,0.0,24.87,34.87,36.87
218.475872,-0.05,0.12,-9.76,0.0,0.0,0.0,24.87,34.87,36.87
218.499843,-0.02,0.08,-9.8,0.0,0.0,0.0,24.87,34.87,36.87
218.51988,-0.02,0.06,-9.76,0.0,0.0,0.0,24.5,34.06,36.06
218.543869,-0.06,0.07,-9.78,0.0,0.0,0.0,24.5,34.06,36.06
218.567829,-0.08,0.03,-9.78,0.0,0.0,0.0,24.87,33.68,36.87
